subjID	trial	choice	RT
1	2	1	0.41124499996658415
1	4	1	0.5653450000099838
1	8	1	0.8885100000188686
1	9	1	0.7553049999987707
1	13	1	0.7467049999977462
1	16	1	0.862970000016503
1	19	1	0.3502849999931641
1	22	1	0.4766600000439212
1	25	1	0.6669650000403635
1	26	1	0.7194000000017695
1	27	1	0.6100849999929778
1	32	1	0.6848849999951199
1	40	1	0.4792349999770522
1	44	1	1.2026850000256673
1	46	1	0.4813300000387244
1	48	1	0.3680600000079721
1	51	1	0.4951700000092387
1	53	1	0.7270900000003166
1	54	1	0.4347750000306405
1	56	1	0.8359100000234321
1	57	1	0.4648600000073202
1	60	1	0.8127150000073016
1	65	2	0.775980000034906
1	68	2	0.7422150000347756
1	72	2	0.7774900000076741
1	76	1	0.8481649999739602
1	80	1	0.707120000035502
1	82	2	0.9179199999780394
1	85	2	0.7989800000214018
1	86	2	0.927155000041239
1	90	1	1.0032200000132434
1	93	1	0.9419200000120328
1	98	2	0.8883100000093691
1	101	2	0.9177899999776856
1	104	1	0.9814650000189432
1	109	2	0.7122849999577738
1	112	1	0.6756099999765866
1	115	1	0.6145899999537505
1	118	1	0.6097099999897182
1	120	1	0.5813649999909103
2	2	1	0.48935499996878207
2	4	1	0.41459499998018146
2	8	1	0.4719000000040978
2	9	1	0.518999999971129
2	13	2	0.5664899999974295
2	16	2	0.560715000028722
2	19	2	0.4251550000626594
2	22	1	0.510634999955073
2	25	1	0.31501500005833805
2	26	2	0.767494999920018
2	27	2	0.6031550000188872
2	32	2	0.8973199999891222
2	40	1	1.3440949999494478
2	44	1	1.471070000086911
2	46	1	1.3384450000012291
2	48	1	1.5572599999140948
2	51	1	1.413109999964945
2	53	1	1.384749999968335
2	54	1	1.312195000005886
2	56	1	1.3638250000076368
2	57	1	1.3086349999066442
2	60	1	1.551175000029616
2	65	2	1.5134750000433996
2	68	1	1.5199850000208244
2	72	2	1.506169999949634
2	76	2	1.3453550001140684
2	80	1	1.2327100000111386
2	82	1	1.4068050000350922
2	85	1	1.2470449999673292
2	86	1	1.3423450000118464
2	90	1	1.2471950000617653
2	93	1	1.377500000060536
2	98	1	1.266414999961853
2	101	1	1.314905000035651
2	104	1	1.4627300000283867
2	109	1	1.2838899999624118
2	112	1	1.357315000030212
2	115	2	1.3192099999869242
2	118	1	1.347940000006929
2	120	1	1.260149999987334
3	2	1	0.559345000074245
3	4	1	0.45215500006452203
3	8	1	0.362749999971129
3	9	2	0.68430500000249594
3	13	2	0.5255850000539795
3	16	2	0.831209999974817
3	19	1	0.44473999994806945
3	22	1	0.4690949999494478
3	25	1	0.4364300000015646
3	26	2	0.5964500000700355
3	27	1	0.7910649999976158
3	32	2	0.5760050000390038
3	44	1	0.6299349999753758
3	46	2	0.4472500000847503
3	48	2	0.7628299999050796
3	51	2	0.4126049999613315
3	53	2	0.5596049999585375
3	54	1	0.692200000048615
3	56	2	0.4908150000264868
3	57	2	0.5118200000142679
3	60	2	0.396269999910146
3	65	2	0.5113150000106543
3	68	1	0.7929449999937788
3	72	2	0.4583050000946969
3	76	2	0.7540049999952316
3	80	2	0.6204950000392273
3	82	2	0.5890099999960512
3	85	2	0.48757999995723367
3	86	2	0.8408249999629334
3	90	1	0.5202049999497831
3	93	2	0.5695449999766424
3	98	2	0.6010900000110269
3	101	2	0.3691549999639392
3	104	1	0.7741099999984726
3	109	2	0.4625399999786168
3	112	2	0.6361150000011548
3	115	2	0.420564999920316
3	118	1	0.6694750000024214
3	120	1	0.32199999992735684
4	2	1	0.689
4	4	1	0.535
4	8	1	0.7
4	9	2	1.246
4	13	2	0.657
4	16	1	0.743
4	19	1	0.814
4	22	1	0.738
4	25	1	0.949
4	26	1	0.894
4	27	1	0.493
4	32	1	0.724
4	40	1	0.889
4	44	1	0.684
4	46	1	0.76
4	48	1	0.809
4	51	1	0.685
4	53	2	0.579
4	54	1	0.788
4	56	1	0.928
4	57	1	0.624
4	60	1	0.841
4	65	1	0.637
4	68	2	1.02
4	72	2	0.481
4	76	1	0.702
4	80	2	0.649
4	82	2	0.545
4	85	1	0.512
4	86	1	1.011
4	90	1	0.984
4	93	1	0.392
4	98	1	1.131
4	101	1	0.824
4	104	2	0.574
4	109	1	0.813
4	112	1	0.719
4	115	1	0.728
4	118	2	0.676
4	120	2	0.746
5	2	2	0.4380549999768846
5	4	1	0.408289999992121
5	8	2	0.5009500000160187
5	9	2	0.4708749999990687
5	13	2	0.4884500000043772
5	16	1	0.6296399999991991
5	19	1	0.40794499998446554
5	22	1	0.3931999999913387
5	25	1	0.47655500000109896
5	26	1	0.6260349999938626
5	27	2	0.6190550000173971
5	32	1	0.46627500001341105
5	40	1	0.42673500001546927
5	44	1	0.866665000008652
5	46	1	0.3987100000085775
5	48	1	0.6602950000087731
5	51	1	0.4577299999946262
5	53	2	0.815984999993816
5	54	1	0.686535000015283
5	56	1	0.3619999999937136
5	57	1	0.7265199999965262
5	60	1	0.4196949999895878
5	65	1	0.5496600000187755
5	68	1	0.6343650000053458
5	72	1	0.6282449999998789
5	76	1	0.5509200000087731
5	80	1	0.4479500000015833
5	82	1	0.5318850000039674
5	85	1	0.4042349999945145
5	86	1	0.3915250000136439
5	90	2	0.5770300000149291
5	93	2	0.4871500000008382
5	98	1	0.5434599999862257
5	101	1	0.4745100000000093
5	104	1	0.45992999998270534
5	109	1	0.4407899999932851
5	112	2	0.7424999999930151
5	115	1	0.6410650000034366
5	118	2	0.6530999999959022
5	120	1	0.7790049999894109
6	2	1	1.3782399999909103
6	4	1	0.6693400000222027
6	8	1	0.4826700000558049
6	9	1	0.37517999997362494
6	13	1	0.5915099999401718
6	16	1	0.4938950000796467
6	19	1	0.31649999995715916
6	22	1	0.5983499998692423
6	25	2	0.34852999984286726
6	26	2	0.6333349999040365
6	27	2	0.4215550001244992
6	32	1	0.5587400000076741
6	40	2	0.7723550000227988
6	44	1	0.5792699998710304
6	46	1	0.47242000000551343
6	48	1	0.5253550000488758
6	51	1	0.32596000004559755
6	53	1	0.4752299999818206
6	54	1	0.5625249999575317
6	56	1	0.39044500002637506
6	57	1	0.3040599999949336
6	60	1	0.6347799999639392
6	65	1	0.6360599999316037
6	68	1	0.8801349999848753
6	72	1	0.8118250002153218
6	76	1	0.5795499999076128
6	80	1	0.6858349998947233
6	85	1	0.8875949999783188
6	86	1	0.6241949999239296
6	90	1	0.5016699999105185
6	93	2	0.6283950000070035
6	98	1	0.5784549999516457
6	101	1	0.6648950001690537
6	104	1	0.7674600000027567
6	109	1	0.7053750001359731
6	112	1	0.5756699999328703
6	115	1	0.7346200000029057
6	118	1	0.541739999782294
6	120	1	0.5132150000426918
7	2	1	0.3689250000170432
7	4	1	0.34864999999990687
7	8	1	0.3724249999795574
7	9	2	0.6646199999959208
7	13	2	0.5094450000033248
7	16	2	0.7860900000086986
7	22	1	0.5422299999918323
7	25	2	0.6157900000107475
7	26	2	0.5311000000219792
7	27	1	0.5538700000033714
7	32	1	0.45902499998919666
7	40	1	0.4030499999935273
7	44	1	0.5458999999973457
7	46	1	0.3889799999888055
7	48	2	0.46472999997786246
7	51	2	0.5270200000086334
7	53	1	0.6727299999911338
7	54	1	0.40940999999293126
7	56	2	0.5023700000019744
7	57	1	0.514145000022836
7	60	2	0.5870749999885447
7	65	2	0.521035000012489
7	68	1	0.34394000002066605
7	72	2	0.6226400000159629
7	76	2	0.4012900000088848
7	80	1	0.37371000001439825
7	82	2	0.458150000020396
7	85	2	0.41766499998630024
7	86	1	0.37911000000895
7	90	1	0.32123000000137836
7	93	1	0.32094999999389984
7	98	1	0.33718500001123175
7	101	1	0.34553500000038184
7	104	2	0.524989999976242
7	109	1	0.4861300000047777
7	112	1	0.6744250000047032
7	115	2	0.4489750000066124
7	118	1	0.32861500000581145
7	120	1	0.371370000008028
8	2	2	0.45647000009194016
8	4	2	1.4215150000527501
8	8	2	0.47228999994695187
8	9	1	0.5927850001025945
8	13	2	0.4961649999022484
8	16	1	0.46621500002220273
8	19	1	0.40153000014834106
8	22	1	0.3618650001008064
8	25	1	0.4210550000425428
8	26	1	0.43327499995939434
8	27	1	0.3344799999613315
8	32	2	0.6189349999185652
8	40	1	0.3815350001677871
8	44	1	0.4452899999450892
8	46	2	0.5337300000246614
8	48	2	0.6696099999826401
8	51	2	0.6072400000412017
8	53	2	0.8500500000081956
8	54	1	0.45882499986328185
8	56	1	0.5048299999907613
8	57	2	0.6184549999888986
8	60	2	0.8782999999821186
8	65	2	0.6619649999774992
8	68	2	0.5912599998991936
8	72	2	0.8604399999603629
8	76	1	0.7948099998757243
8	80	1	0.3788099999073893
8	82	2	0.6589500000700355
8	85	2	0.5801450000144541
8	86	1	0.9336350001394748
8	90	1	0.9501050000544636
8	93	2	0.5299549999181181
8	98	2	0.5561349999625236
8	101	2	0.5762750001158565
8	104	1	0.5680749998427927
8	109	2	0.557194999884814
8	112	2	0.6582049999851733
8	115	1	0.6132300000172108
8	118	1	0.6938549999613315
8	120	2	0.5383900001179427
9	2	1	0.4693449999977019
9	4	1	0.4051800000015646
9	8	1	0.42040999999881024
9	9	2	0.44011500000124215
9	13	1	0.4981950000001234
9	16	1	0.4236549999986891
9	19	1	0.4247849999992468
9	22	2	0.5600849999973434
9	25	1	0.46945500000217
9	26	1	0.6091599999999744
9	27	1	0.4981349999979721
9	32	1	0.59551499999722
9	40	1	0.39650999999867054
9	44	1	0.4408100000000559
9	46	1	0.36792000000062397
9	48	1	0.4777800000010757
9	51	2	0.5728149999995948
9	53	1	0.47766499999852385
9	54	1	0.5451199999988312
9	56	1	0.45566999999934343
9	57	1	0.5012150000002584
9	60	1	0.5453100000013364
9	65	2	0.6573300000018207
9	68	2	0.7207349999989965
9	72	2	0.5606299999998883
9	76	1	0.5189250000003376
9	80	1	0.48818500000197673
9	82	1	0.6607549999971525
9	85	2	0.5485999999982305
9	86	2	0.668340000000142
9	90	1	0.5484350000005798
9	93	1	0.4181349999998929
9	98	1	0.561760000000475
9	101	2	0.7294199999996345
9	104	1	0.46880500000045866
9	109	1	0.4501300000011688
9	112	2	0.49351000000024214
9	115	1	0.4506650000002701
9	118	2	0.4314650000014808
9	120	1	0.4290999999976484
10	2	1	1.487565000075847
10	4	2	1.3005250000860542
10	8	2	1.2552300000097605
10	9	2	1.2698000001255425
10	13	2	1.3024800000712276
10	16	1	1.2260499999392778
10	19	2	1.5685999998822808
10	22	2	1.6294350000098348
10	25	1	1.2664199999999255
10	26	1	1.2650949999224397
10	27	1	1.2421150000300258
10	32	2	1.2564099999144671
10	40	1	1.294224999845028
10	44	2	1.2735049999319017
10	48	1	1.3606750001199543
10	51	2	1.2209000000730157
10	53	1	1.219664999982342
10	56	2	1.1478950001765045
10	57	2	1.2077200000640005
10	60	1	1.2068100001197308
10	65	2	1.0106750000268219
10	68	1	0.3014800001401454
10	72	2	0.6899599998723716
10	80	1	0.49927500006742775
10	82	1	0.9264099998399616
10	85	1	0.13695499999448657
10	86	1	0.10088000004179776
10	90	1	0.1362100001424551
10	104	1	0.10244500008411704
10	118	1	0.208939999807626
11	2	1	0.6347550000064075
11	4	1	0.5080500000040047
11	8	2	1.2252500000176951
11	9	2	0.8320950000197627
11	13	2	0.5915849999873899
11	16	2	0.713114999991376
11	19	1	0.5593100000405684
11	22	1	0.5214150000247173
11	25	1	0.5302500000107102
11	27	2	0.7075799999875017
11	32	2	0.8453599999775179
11	40	1	0.5669650000054389
11	44	1	0.8621400000411086
11	46	1	0.39791499997954816
11	48	2	0.5920400000177324
11	51	1	0.6571549999644049
11	53	1	0.6166450000018813
11	54	1	0.6386800000327639
11	56	1	0.91654499998549
11	57	1	0.6131349999923259
11	60	2	0.6612749999621883
11	65	2	0.7256049999850802
11	68	2	0.8299600000027567
11	72	2	0.8315399999846704
11	76	2	0.6031150000053458
11	80	1	0.515320000005886
11	82	2	0.6661549999844283
11	85	2	0.5820950000197627
11	86	1	1.0467949999729171
11	90	2	0.5673400000086986
11	93	2	0.606534999969881
11	98	1	0.44815000001108274
11	101	1	0.5445999999647029
11	104	2	0.5203549999860115
11	109	1	0.40681999997468665
11	112	1	0.7312899999669753
11	115	1	0.4852400000090711
11	118	1	0.6773649999522604
11	120	1	0.8185449999873526
12	2	1	0.3635900000008405
12	4	1	0.34714000000531087
12	8	1	0.3537799999976414
12	9	2	0.6143000000010943
12	13	2	1.1575149999989662
12	16	2	0.6094949999969685
12	19	2	0.5753350000013597
12	22	1	0.516444999993837
12	25	1	0.8663950000045588
12	26	1	0.747269999999844
12	27	1	0.46717999999964377
12	32	1	0.33320000000094296
12	40	1	0.7283999999999651
12	44	1	0.5404300000009243
12	46	1	0.5839650000052643
12	48	1	0.521374999996624
12	51	1	0.5742150000005495
12	53	1	0.7472100000013597
12	54	1	0.8451600000043982
12	56	1	0.5645050000021001
12	57	1	0.7287649999998393
12	60	2	0.6051900000020396
12	65	2	0.771164999998291
12	68	1	0.4451649999973597
12	72	2	0.69175499999983
12	76	1	0.5798199999990175
12	80	1	0.5369599999976344
12	82	1	0.7804849999956787
12	85	1	0.6474649999945541
12	86	1	0.5845849999968777
12	90	1	0.5364449999979115
12	93	1	0.6375299999999697
12	98	1	0.4999800000005053
12	101	1	0.872800000004645
12	104	1	0.6121349999957602
12	109	1	0.6514500000048429
12	112	1	0.616504999998142
12	115	1	0.6693450000020675
12	118	2	1.0185599999967965
12	120	1	0.6547849999988102
13	2	1	1.297
13	4	1	1.278
13	8	1	1.032
13	9	1	1.25
13	13	2	1.124
13	16	1	0.868
13	19	1	0.711
13	22	2	0.512
13	25	1	0.872
13	26	1	0.914
13	27	1	0.771
13	32	1	0.733
13	40	1	0.44
13	44	1	0.608
13	46	1	0.48
13	48	1	1.102
13	51	1	1.229
13	54	1	1.155
13	56	1	0.476
13	57	1	1.26
13	60	1	1.256
13	65	1	1.239
13	68	1	1.283
13	72	2	1.265
13	76	1	1.227
13	80	1	1.216
13	82	1	1.212
13	85	1	1.293
13	86	1	1.253
13	90	1	1.532
13	93	2	1.298
13	98	1	1.257
13	104	1	1.188
13	109	1	1.597
13	112	1	1.493
13	115	1	1.25
13	118	1	0.959
13	120	2	0.477
14	2	1	1.221
14	4	1	1.25
14	8	1	1.595
14	9	2	1.245
14	16	1	1.237
14	19	1	1.237
14	22	1	1.25
14	25	1	1.21
14	26	1	1.684
14	27	2	1.702
14	32	1	1.266
14	40	1	1.15
14	44	1	1.267
14	46	2	1.523
14	48	1	0.89
14	51	1	0.937
14	53	1	1.243
14	54	1	1.304
14	56	1	1.504
14	57	1	1.253
14	60	2	1.217
14	65	2	1.22
14	68	1	1.287
14	72	1	1.228
14	76	1	1.27
14	80	1	1.275
14	82	1	1.295
14	85	1	1.277
14	86	1	1.323
14	90	1	1.286
14	93	2	1.376
14	98	1	1.36
14	101	1	1.227
14	104	1	1.177
14	109	1	1.309
14	112	1	1.285
14	115	2	1.295
14	118	1	1.586
14	120	2	1.732
15	2	1	0.5634299999801442
15	4	1	0.5269199999747798
15	8	1	0.6113599999807775
15	9	1	1.2027800000505522
15	13	1	0.9044749999884516
15	16	1	1.094554999959655
15	19	1	0.7270299999509007
15	22	1	0.7186600000131875
15	25	1	0.7543750000186265
15	26	2	0.8416049999650568
15	27	1	0.5571000000927597
15	32	1	0.8553750000428408
15	40	1	0.5362749999621883
15	44	1	0.6282150000333786
15	46	1	0.5560599999735132
15	48	1	0.8708349999506027
15	51	1	0.6500800000503659
15	53	1	0.8639299999922514
15	54	1	0.5531400000909343
15	56	1	0.6291700000874698
15	57	1	0.7304049999220297
15	60	1	0.8320750000420958
15	65	1	0.6228000000119209
15	68	2	1.232564999954775
15	72	2	0.7809249999700114
15	76	1	0.7299549999879673
15	80	1	1.0137500000419097
15	82	2	1.1428800000576302
15	85	1	0.7283799999859184
15	86	1	0.538425000035204
15	90	2	0.7185850000241771
15	93	2	0.7454699999652803
15	98	2	0.8057049999479204
15	101	2	0.7149099999805912
15	104	1	0.6623000000836328
15	109	1	0.6196499998914078
15	112	2	0.7162050000624731
15	115	1	1.0783800000790509
15	118	1	0.7022600000491366
15	120	1	0.6130350000457838
16	2	1	0.5820599999278784
16	4	1	0.4290350000374019
16	8	1	0.33031499991193414
16	9	2	0.4570450000464916
16	13	2	0.29033499979414046
16	16	2	0.6825800000224262
16	19	2	0.6954049998894334
16	25	2	0.6726100000087172
16	26	2	0.41361499996855855
16	27	2	0.5852549998089671
16	32	2	0.31923999986611307
16	40	2	0.3607900000642985
16	44	1	0.5142850000411272
16	46	1	0.33565999986603856
16	48	1	0.4702500000130385
16	51	1	0.6191550001967698
16	53	1	0.6578550001140684
16	54	1	0.5214149998500943
16	56	1	0.5187550000846386
16	57	1	0.5011549999471754
16	60	1	0.4097500001080334
16	65	2	0.6907600001432002
16	68	1	0.40803000004962087
16	72	1	0.3660850001033395
16	76	1	0.4050549999810755
16	80	2	0.4904350000433624
16	82	1	0.361185000045225
16	85	2	0.48693499993532896
16	86	1	0.6624199999496341
16	90	1	0.777364999987185
16	93	1	0.5086150001734495
16	98	1	0.8818550000432879
16	101	2	0.47922000009566545
16	104	2	0.3173400000669062
16	109	2	0.4935800000093878
16	112	1	0.3738650002051145
16	115	2	0.4722550001461059
16	118	2	0.600194999948144
16	120	2	0.41632500011473894
17	2	1	0.5130950000602752
17	4	1	0.3449649999383837
17	9	1	0.9946449999697506
17	13	1	0.3959150000009686
17	16	1	0.4017149999272078
17	19	1	0.5420500000473112
17	22	1	0.34127500001341105
17	25	1	0.7914350000210106
17	26	2	0.745325000025332
17	27	1	1.1857650000602007
17	32	1	0.8296099998988211
17	40	2	0.5938150000292808
17	44	1	0.8650650000199676
17	46	1	0.929234999930486
17	48	1	0.8960800000932068
17	51	2	0.6453800001181662
17	53	1	0.8153799998108298
17	54	2	0.859809999819845
17	56	2	0.8650249999482185
17	57	1	0.9102849999908358
17	60	1	0.4676200000103563
17	65	1	1.103754999814555
17	68	2	0.8969350000843406
17	72	1	1.0741850000340492
17	76	1	0.7011600001715124
17	80	1	0.9964000000618398
17	82	1	0.9926950000226498
17	85	1	0.9969000001437962
17	86	1	1.138074999907985
17	90	2	1.0567850000225008
17	93	1	0.8699450001586229
17	98	2	1.034779999870807
17	101	2	0.9051550000440328
17	104	1	0.8195100000593811
17	109	1	0.906650000018999
17	112	2	1.0126350000500681
17	118	2	0.996650000102818
17	120	1	1.0111650000326338
18	2	1	0.468
18	4	1	0.336
18	8	1	0.41
18	9	1	0.573
18	13	2	0.333
18	16	2	0.436
18	19	2	0.651
18	22	1	0.568
18	25	1	0.383
18	26	1	1.236
18	27	1	1.274
18	32	1	0.633
18	40	1	0.329
18	44	1	0.41
18	46	1	0.373
18	48	1	0.359
18	51	1	0.428
18	53	1	0.393
18	54	1	0.41
18	56	1	0.349
18	57	1	0.435
18	60	1	0.313
18	65	1	1.318
18	68	1	1.427
18	72	1	0.409
18	76	1	0.444
18	80	1	0.333
18	82	1	0.331
18	85	1	0.718
18	86	1	0.917
18	90	1	0.433
18	93	1	0.293
18	98	1	0.377
18	101	1	0.355
18	104	1	0.408
18	109	2	0.616
18	112	1	0.434
18	115	1	0.46
18	118	2	0.633
18	120	1	0.421
19	2	1	0.7546950000000797
19	4	2	0.4787500000002183
19	8	1	0.6093799999998882
19	9	1	0.5521499999999651
19	13	1	0.7586700000001875
19	16	1	0.8188299999996962
19	19	1	0.6940850000001083
19	22	1	0.5558200000000361
19	25	1	0.4306600000000035
19	26	1	0.5886550000000279
19	27	1	0.5266349999996892
19	32	2	0.48081000000002677
19	40	2	0.9567150000002584
19	44	1	0.92016000000012
19	46	1	0.557274999999674
19	48	1	0.8739399999999441
19	51	2	0.7973199999996577
19	53	2	0.9803700000002282
19	54	2	0.7159750000000349
19	56	1	0.7976699999999255
19	57	1	1.081215000000142
19	60	1	0.7612049999997834
19	65	1	0.7324749999998021
19	68	2	0.4319650000002002
19	72	2	0.438429999999702
19	76	1	0.978530000000319
19	80	2	0.9386150000000488
19	82	2	0.710945000000298
19	85	2	0.6481300000000628
19	86	2	0.8405449999999837
19	90	2	0.7410800000002491
19	93	2	0.673585000000021
19	98	2	0.5843700000000536
19	101	2	0.5176000000001514
19	104	2	0.635320000000298
19	109	2	0.6817099999998464
19	112	2	0.9774800000000395
19	115	1	0.3847249999999185
19	118	2	1.0021099999998697
19	120	1	0.5437649999998976
20	2	1	0.60566999996081
20	4	1	0.4872050000121817
20	8	1	0.7781899999827147
20	9	1	0.39104000001680106
20	19	1	0.8485700000310317
20	22	1	0.7689949999330565
20	25	2	0.5600900000426918
20	26	2	0.4997749999165535
20	27	2	0.5843249999452382
20	32	2	0.6956850000424311
20	40	1	0.5723650000290945
20	44	2	0.8112899999832734
20	46	1	0.6904250000370666
20	48	1	0.6614950000075623
20	51	1	0.6658399999141693
20	53	2	0.5118050000164658
20	54	1	0.840265000006184
20	56	1	0.7409000000916421
20	57	1	0.5854050000198185
20	60	2	0.7099450000096112
20	65	1	0.7506699999794364
20	68	1	0.6848100000061095
20	72	1	0.7515600000042468
20	76	1	0.698365000076592
20	80	1	0.5332600000547245
20	82	1	0.7388799999607727
20	85	1	0.7502450000029057
20	86	1	0.5777850000886247
20	90	1	0.686989999958314
20	93	2	0.6441150000318885
20	98	2	0.606000000028871
20	101	2	0.8258699999423698
20	109	2	0.555009999894537
20	115	2	0.9655499999644236
20	118	1	0.9424500000895932
20	120	1	0.6856499999994412
21	2	1	0.8126049999991665
21	4	1	0.4994449999976496
21	8	2	0.7617600000012317
21	9	1	0.45758500000010827
21	13	1	0.9907249999996566
21	16	1	0.8279899999979534
21	19	1	0.8993349999982456
21	22	2	0.7418299999990268
21	25	1	0.4420950000021549
21	26	1	0.807410000001255
21	27	1	0.8407200000001467
21	32	2	0.7766600000031758
21	40	2	0.7098899999982677
21	44	1	0.908305000000837
21	46	2	0.9114999999983412
21	48	1	0.4629449999993085
21	51	1	0.7169450000001234
21	53	1	0.8363600000011502
21	54	1	0.6366699999998673
21	56	1	0.7118950000003679
21	57	1	0.8632999999972526
21	60	1	0.6269200000023702
21	65	2	0.5942299999988172
21	68	2	0.8479499999994295
21	72	1	0.9553950000008916
21	76	1	0.9667449999979
21	80	1	0.95005499999749
21	82	1	0.6028499999992782
21	85	1	0.6689299999998184
21	86	1	0.4104399999997113
21	90	1	0.9767700000010664
21	93	2	0.9715700000015204
21	98	1	0.4359650000005495
21	101	2	0.6416549999994459
21	104	1	0.6386700000002747
21	109	1	0.4251550000008429
21	112	1	0.538429999996908
21	115	1	0.4339849999996368
21	118	1	0.7800999999999185
21	120	1	0.7033300000002491
22	2	1	0.4685350002255291
22	4	1	0.38637999980710447
22	8	1	0.5938299999106675
22	9	2	0.8542200000956655
22	13	1	0.4949350000824779
22	16	1	0.6366449999623001
22	19	1	0.59159000008367
22	22	1	0.7928450000472367
22	25	1	0.8378550000488758
22	26	2	0.578830000013113
22	27	1	0.6191899999976158
22	32	1	0.5636150001082569
22	40	1	1.0092299999669194
22	44	1	0.8062099998351187
22	46	1	0.609110000077635
22	48	1	1.1152850000653416
22	51	1	0.5604199999943376
22	53	1	0.5802800001110882
22	54	1	0.5923750000074506
22	56	1	0.450175000121817
22	57	1	0.653724999865517
22	60	2	1.0183649999089541
22	65	2	0.7720550000667572
22	68	1	0.8049300001002848
22	72	2	0.5532449998427182
22	76	2	0.8348949998617172
22	80	2	0.4396100000012666
22	82	2	0.6479350000154227
22	85	2	0.656565000070259
22	86	1	0.7663499999325722
22	90	2	0.705684999935329
22	93	2	0.559720000019297
22	98	2	0.9158949998673052
22	101	2	0.5446900001261383
22	104	1	0.9752749998588116
22	109	1	0.7111049999948591
22	112	2	0.8174799999687821
22	115	2	0.5546049999538809
22	118	2	0.7031049998477101
22	120	1	0.39153499994426966
23	2	1	0.512
23	4	1	0.394
23	8	1	0.631
23	9	2	0.8
23	13	1	0.801
23	16	1	0.586
23	19	1	0.78
23	22	1	0.495
23	25	1	0.672
23	26	1	0.547
23	27	2	0.625
23	32	2	0.683
23	40	2	0.565
23	44	2	0.585
23	46	1	0.628
23	48	1	0.822
23	51	2	0.784
23	53	1	0.734
23	54	1	0.576
23	56	1	0.614
23	57	1	0.673
23	60	1	0.802
23	65	1	0.649
23	68	1	0.521
23	72	1	0.984
23	76	2	0.486
23	80	1	0.815
23	82	1	1.079
23	85	1	0.468
23	86	1	0.731
23	90	1	0.735
23	93	1	0.61
23	98	1	0.361
23	104	1	0.479
23	109	1	0.388
23	112	1	0.476
23	115	1	0.421
23	118	1	0.429
23	120	1	0.567
24	2	1	0.6381099999998696
24	4	1	0.5167899999942165
24	8	2	0.6735250000201631
24	9	2	0.6739999999990687
24	13	1	0.6943700000119861
24	16	1	0.57852499998989515
24	19	1	0.6546199999866076
24	22	1	0.7644349999900442
24	25	1	0.9410949999873992
24	26	2	0.977054999995744
24	27	2	1.0017899999802466
24	32	2	0.6736699999892153
24	40	1	1.293839999998454
24	44	1	0.5162600000039674
24	46	1	0.6679299999959767
24	48	1	1.0244349999993574
24	51	1	0.8036399999982677
24	53	1	0.8630199999897741
24	54	1	0.601825000019744
24	56	1	0.6647000000230037
24	57	1	0.7620950000127777
24	60	1	0.723230000003241
24	65	1	0.8592000000062399
24	68	2	0.6009000000194646
24	72	2	0.6128400000161491
24	76	2	0.8962150000152178
24	80	2	0.8547549999784678
24	82	2	0.9010450000059792
24	85	2	0.7604750000173226
24	86	1	0.7250500000081956
24	90	1	1.2154349999909757
24	93	2	1.2277699999976903
24	98	2	0.8839549999975134
24	101	2	0.7416050000174437
24	104	1	0.7367450000019744
24	109	1	0.9403349999920464
24	112	2	0.7773250000027474
24	115	2	0.8632050000014715
24	118	1	0.8292099999962375
24	120	1	0.9579850000154692
25	2	1	0.4669149999972433
25	4	2	0.5911700001452118
25	8	1	0.3563500000163913
25	9	1	0.5105449999682605
25	13	2	0.4314600001089275
25	16	1	0.6032500001601875
25	19	1	0.4711249999236315
25	22	1	0.5354799998458475
25	25	2	0.7591699999757111
25	26	2	0.832945000147447
25	27	1	0.6595750001724809
25	32	1	0.6099050000775605
25	40	1	0.7655549999326468
25	44	2	0.8288049998227507
25	46	2	0.5160799999721348
25	48	2	0.5067849999759346
25	51	2	0.4881700000260025
25	53	1	0.5255499999038875
25	54	1	0.6622450000140816
25	56	2	0.7326350000221282
25	57	1	0.9284999999217688
25	60	2	0.7345249999780208
25	65	2	0.44486499996855855
25	68	2	0.6140700001269579
25	72	2	0.5023600000422448
25	76	2	0.43329000007361174
25	80	1	0.7415100000798702
25	82	1	0.43947499990463257
25	85	2	0.5443949999753386
25	86	2	0.6498000000137836
25	90	2	0.6513000000268221
25	93	1	0.7789749999064952
25	98	2	0.6870800000615418
25	101	2	0.6861550000030547
25	104	2	0.8597549998667091
25	109	1	1.191259999992326
25	112	1	0.9383050000760704
25	115	2	0.7891799998469651
25	118	2	0.5322800001595169
25	120	2	0.848554999800399
26	2	1	0.4906850000843406
26	4	1	0.4157750001177192
26	8	1	0.34181999997235835
26	9	1	0.6064000001642853
26	13	2	0.3947450001724064
26	16	1	0.811744999838993
26	19	2	0.6474299998953938
26	22	1	0.5031950001139194
26	25	1	0.6262350000906736
26	26	1	0.6712899999693036
26	27	1	0.6395100001245737
26	32	2	0.495714999968186
26	40	1	0.3656750000081957
26	44	1	0.7150250000413507
26	46	1	0.4841699998360127
26	48	1	0.543610000051558
26	51	1	0.33676499989815056
26	53	1	0.6256949999369681
26	54	1	0.5517100000288337
26	56	1	0.45731500000692904
26	57	1	0.7679699999280274
26	60	2	0.4713899998459965
26	65	1	0.5305949999019504
26	68	1	0.5166100000496954
26	72	1	0.4583149999380112
26	76	1	0.630875000031665
26	80	1	0.5650799998547882
26	82	1	0.48967499984428287
26	85	1	0.6598549999762326
26	86	1	0.6803550000768155
26	90	1	0.4142050000373274
26	93	1	0.5462100000586361
26	98	1	0.4897499999497086
26	101	1	0.6840250000823289
26	104	1	0.7010999999474734
26	109	1	0.5751199999358505
26	112	1	0.7008450001012534
26	115	1	0.7609099999535829
26	118	1	0.5496450001373887
26	120	1	0.4587249998003245
27	2	2	0.8426249999902211
27	4	1	0.36941000004298985
27	8	2	0.7813150000292808
27	9	2	0.4923449999769218
27	13	2	0.4793599999975413
27	19	2	0.540244999981951
27	32	2	0.5962500000023283
27	40	1	0.7081699999980628
27	44	1	0.37093999999342486
27	46	1	0.9052399999927728
27	48	1	0.6382999999914318
27	51	1	0.5981100000208244
27	53	2	0.6633100000326522
27	54	1	0.6254550000303425
27	56	1	0.4800299999769777
27	57	1	0.7387199999648146
27	60	1	0.4569900000351481
27	65	2	0.6770250000408851
27	68	1	0.426415000052657
27	72	2	0.57794500002637506
27	76	1	0.35816999996313825
27	80	1	0.6097350000054576
27	82	2	0.5863399999798276
27	86	2	0.8150900000473484
27	90	1	0.5295700000133365
27	93	1	0.45659499999601394
27	98	1	0.4026550000417046
27	101	1	0.5856799999601208
27	104	2	0.49864000000525266
27	109	2	0.506409999972675
27	112	1	0.746370000008028
27	115	2	0.5630750000127591
27	118	2	0.4780550000141375
28	2	1	0.35657500000161235
28	4	2	0.5045250000002852
28	8	2	0.6754650000002584
28	9	2	0.8389999999999418
28	13	1	0.4865450000033889
28	19	1	0.1083100000032573
28	22	1	0.1696600000032049
28	26	1	0.4175099999993108
28	27	1	0.6408000000010361
28	46	1	0.13695000000006985
28	51	1	0.19136499999876833
28	56	1	0.20368500000040513
28	72	1	0.1948950000005425
28	76	1	0.18425500000012107
28	82	1	0.2044050000003772
28	86	1	0.11704000000096858
28	90	1	0.21082000000023984
28	93	1	0.2522099999987986
28	104	1	0.23641000000131315
28	112	1	0.1624550000015879
28	115	1	0.24763499999966007
29	2	2	0.2220299999462441
29	4	1	0.27968999999575317
29	9	2	0.37356500001624227
29	13	2	0.3697800000663847
29	16	2	0.5047299999278039
29	19	1	0.5805549999931827
29	22	1	0.5385200000600889
29	25	1	0.28018499992322177
29	26	1	0.3235200000926852
29	27	1	0.5331750001059845
29	32	1	0.6741499999770895
29	40	1	0.6618100000778213
29	44	1	0.7749100000364706
29	46	1	0.5236149999545887
29	48	1	0.672580000013113
29	51	1	0.5470300000160933
29	53	2	0.8291950001148507
29	54	2	0.5403299999888986
29	56	2	0.780170000041835
29	57	1	0.9457249999977648
29	60	1	0.594550000037998
29	65	1	0.5639449999434873
29	68	1	0.6504850001074374
29	72	1	0.40308000007644296
29	76	1	0.5329200000269338
29	80	1	0.5024849999463186
29	82	1	0.42651000001933426
29	85	1	0.4378949999809265
29	86	1	0.6781999999657273
29	90	2	0.7998050000751391
29	93	1	0.570575000019744
29	98	2	0.7549450000515208
29	101	2	0.7048750000540167
29	104	1	0.6109049998922274
29	109	1	0.7698600000003353
29	112	1	0.5700000000651926
29	115	2	0.7539099999703467
29	118	2	0.5808850000612438
29	120	1	1.040235000080429
30	2	1	0.3114750001113862
30	4	1	0.34313499997369945
30	8	1	0.32126499991863966
30	9	1	0.5757000001613051
30	13	2	0.5549249998293817
30	16	2	0.6885250001214445
30	19	1	0.5864699999801815
30	22	1	0.4983000000938773
30	25	1	0.9511500000953674
30	26	1	0.8089449999388307
30	27	1	0.5633100001141429
30	32	1	0.6667850001249462
30	40	1	0.7081600001547486
30	44	1	0.7047550000716001
30	46	1	0.3800099999643862
30	48	1	0.59582499996759
30	51	1	0.5793699999339879
30	53	1	0.36268500005826354
30	54	1	0.3661050000227988
30	56	1	0.8241649998817593
30	57	1	0.6154549999628216
30	60	1	0.6588250000495464
30	65	2	0.6142649999819696
30	68	2	0.710105000063777
30	72	2	0.6637450000271201
30	76	1	0.5417899999301881
30	80	1	0.3871349999681115
30	82	2	0.7316449999343604
30	85	1	0.8877650001086295
30	86	1	0.6229650001041591
30	93	1	0.49812999996356666
30	98	1	0.4582350000273436
30	101	1	0.3448100001551211
30	104	1	0.6914000001270324
30	109	1	0.614500000141561
30	115	1	0.5505850000772625
30	118	1	0.8051100000739098
30	120	1	0.2963799999561161
31	2	2	1.1795750001911074
31	4	1	0.469455000013113
31	9	1	0.6818099999800324
31	13	1	0.4951199998613447
31	16	1	0.5496699998620898
31	19	1	0.47744500008411705
31	22	1	0.5373200001195073
31	25	2	0.9918000001925976
31	26	1	0.759224999928847
31	27	2	0.7994999999646097
31	32	2	0.6405050000175834
31	40	1	0.3257850001100451
31	44	2	0.4408249999396503
31	46	2	0.6686899999622256
31	48	2	0.6086250001098961
31	51	2	0.4628399999346584
31	53	1	0.47335000010207295
31	54	1	0.41344000003300607
31	56	1	0.4644899999257177
31	57	1	0.6776600000448525
31	60	1	0.5277849999256432
31	65	1	0.4437550001312047
31	68	2	0.67558000003919
31	72	1	0.5530350001063198
31	76	1	0.6543300000485033
31	80	1	0.5748599998187274
31	82	1	0.5898200001101941
31	85	1	0.4561550000216812
31	86	1	0.4191750001627952
31	90	1	0.6963800000958145
31	93	1	0.4818049999885261
31	98	1	0.5258249999023974
31	101	1	0.4228799999691546
31	104	1	0.5496650000568479
31	109	2	0.6313350000418723
31	112	1	0.3773849999997765
31	115	1	0.39917999994941056
31	118	1	0.5741599998436868
31	120	1	0.6093900001142174
32	2	1	0.8859999999403954
32	4	1	0.503000000026077
32	8	2	0.746999999973923
32	9	2	0.6430000000400469
32	13	2	0.9020000000018626
32	16	1	1.2209999999031425
32	19	1	0.890999999945052
32	22	2	0.7949999999254942
32	25	1	0.9610000000102444
32	26	1	0.7519999999785796
32	27	2	0.790999999968335
32	32	1	0.875
32	40	2	0.4740000000456348
32	44	1	0.6380000000353903
32	46	1	0.768999999971129
32	48	2	0.5109999999403954
32	51	1	0.8250000000698492
32	53	1	0.7189999999245629
32	54	1	0.7010000000009313
32	56	1	0.7359999999171123
32	57	2	0.6260000000474975
32	60	1	0.6949999999487773
32	65	1	0.9640000000363216
32	68	1	0.9320000000298024
32	72	1	1
32	76	1	0.7669999999925494
32	80	1	0.7079999999841675
32	82	1	0.728000000002794
32	85	1	0.6879999999655411
32	86	1	0.6049999999813735
32	90	1	0.8900000000139698
32	93	2	0.6870000000344589
32	98	2	0.7229999999981374
32	101	1	0.6670000000158325
32	104	2	0.621999999973923
32	109	2	0.6489999999757856
32	112	2	0.4170000000158325
32	115	1	0.8989999999757856
32	118	1	0.5210000000661239
32	120	1	0.7170000000623986
33	2	1	0.48272999993059784
33	4	1	0.35198499995749444
33	8	1	0.7111750000622123
33	9	1	0.8057999999728054
33	13	2	0.6044000000692904
33	16	1	0.8479300000471994
33	19	1	0.4732000000076369
33	22	1	0.8113850000081584
33	25	1	0.4539799999911338
33	26	2	1.0927450000308454
33	27	1	0.6435900001088157
33	32	2	0.8571600000141189
33	40	2	1.0581050000619143
33	44	1	0.5606350000016391
33	46	2	1.0414449999807402
33	48	1	0.4303650000365451
33	51	2	0.5829399999929592
33	53	1	0.83011500001885
33	54	1	0.892214999999851
33	56	1	0.46217000007163733
33	57	2	0.5206199999665841
33	60	1	0.704535000026226
33	65	2	0.6673300000838935
33	68	1	0.47072999994270504
33	76	1	0.7325999999884516
33	80	1	0.5240149999735877
33	82	2	0.4427150000119582
33	85	1	0.3869399999966845
33	86	1	0.43033500004094094
33	90	1	0.4624700000276789
33	93	1	0.36950999998953193
33	98	1	0.314284999971278
33	101	1	0.31735999998636544
33	104	2	0.5485049999551848
33	109	2	0.49653000000398606
33	115	1	0.59582499996759
33	118	1	0.6738299999851733
33	120	1	0.5794049999676645
34	2	1	0.44161999999778345
34	4	1	0.9218499999988126
34	8	1	0.8047250000090571
34	9	1	0.6315749999921536
34	13	2	0.6149399999994785
34	16	1	0.5917049999989104
34	19	2	0.7369099999923492
34	22	1	0.45004499999049585
34	25	1	0.5273500000039348
34	26	2	0.9752900000021328
34	27	1	0.6883000000088941
34	32	1	0.6951750000007451
34	40	1	0.9749700000102166
34	44	1	0.5857550000073388
34	46	1	0.8658100000029663
34	48	1	0.745215000002645
34	51	1	0.6740749999880791
34	53	2	1.0951500000082888
34	54	1	0.8115799999941373
34	56	1	0.6980199999961769
34	57	1	0.4498149999999441
34	60	1	0.786275000005844
34	65	1	0.7804000000032829
34	68	2	0.48029500000120606
34	72	2	0.5515250000025844
34	76	1	0.6546249999955762
34	80	1	0.5241799999930663
34	82	2	0.5146300000051269
34	85	1	0.7460949999949662
34	86	1	0.7869799999898532
34	90	2	0.9125000000058208
34	93	2	1.076744999998482
34	98	1	0.7734750000090571
34	101	2	0.5855200000078185
34	104	1	0.8998699999938253
34	109	2	0.7873050000052899
34	112	2	0.6586349999997765
34	115	1	0.372670000011567
34	118	1	0.7337600000028033
34	120	2	0.6969449999887729
35	2	1	0.6283649999822956
35	4	1	0.3091150000109337
35	8	1	0.42366000000038184
35	9	1	0.6165849999815691
35	13	1	0.43695500001194887
35	16	1	0.6207700000086334
35	19	1	0.5753649999969639
35	22	2	0.6059550000063609
35	25	1	0.4117649999971036
35	26	1	0.6181250000081491
35	27	1	0.5200599999807309
35	32	1	0.6281200000084937
35	40	1	0.4477699999988545
35	44	1	0.38162000000011176
35	46	1	0.4314400000148453
35	48	1	0.4562900000018999
35	51	1	0.4245649999938905
35	53	1	0.5455450000008568
35	54	1	0.4966100000019651
35	56	1	0.42910499998833984
35	57	1	0.6196099999942817
35	60	1	0.39100500001222827
35	65	2	1.031394999998156
35	68	2	0.45029999999678694
35	72	2	0.6019000000087544
35	76	1	0.7159749999991618
35	80	1	0.6212799999921117
35	82	2	0.46581500000320375
35	85	2	0.5993349999771453
35	86	1	0.5521949999965727
35	90	2	0.5026499999803491
35	93	2	0.39478000000235625
35	98	1	0.39778499997919425
35	101	2	0.914714999991702
35	112	1	0.5304100000066683
35	115	1	0.43624500001897104
35	118	1	1.7162499999976717
35	120	1	1.2932999999902677
36	8	2	1.302
36	9	1	0.64
36	13	2	0.668
36	16	2	1.444
36	22	1	1.653
36	25	2	1.431
36	26	1	1.322
36	27	1	1.356
36	40	1	1.313
36	44	2	1.357
36	46	1	1.321
36	48	1	1.361
36	51	1	1.425
36	53	1	1.254
36	56	1	1.257
36	57	1	1.274
36	60	1	1.277
36	65	1	1.478
36	68	1	1.396
36	72	1	1.382
36	76	2	1.434
36	80	1	1.284
36	82	1	1.277
36	86	1	1.663
36	90	1	1.172
36	93	1	1.419
36	98	1	1.223
36	101	1	1.317
36	104	2	1.594
36	109	1	0.718
36	112	1	1.414
36	115	2	1.188
36	118	1	1.306
36	120	1	1.358
37	2	1	0.3587399999378249
37	4	1	0.26968000002671033
37	8	2	0.4828299999935553
37	9	2	0.5841149999760091
37	13	2	0.4459900000365451
37	16	1	0.3954300000332296
37	19	1	0.4512650000397116
37	22	1	0.3623549999902025
37	25	1	0.5461849999846891
37	26	2	0.5382900000549853
37	27	1	0.6863349999766797
37	32	1	0.5356550000142306
37	40	1	0.47381999995559454
37	44	1	0.5267949999542907
37	46	1	0.6146949999965727
37	48	1	0.669484999962151
37	51	2	0.49021499999798834
37	53	1	0.6518699999433011
37	54	2	0.8688749999273568
37	56	2	0.7144049999769777
37	57	2	0.6168849999085069
37	60	1	0.5723299999954179
37	65	1	0.5858650000300258
37	68	2	0.6417499999515712
37	72	2	0.7128950000042096
37	76	1	0.5901500000618398
37	80	1	0.5111000000033529
37	82	2	0.6162999999942258
37	85	1	0.5345550000201911
37	86	1	0.6078299999935552
37	90	2	0.7462100000120699
37	93	2	0.5756699999328703
37	98	2	0.6914200000464916
37	101	2	1.0040400000289085
37	104	1	0.7479600000660866
37	109	2	0.4907899999525398
37	112	2	0.7633399999467656
37	115	1	0.5587649999652058
37	118	2	0.8715199999278411
37	120	1	0.5186199999880046
38	2	1	0.8729999999999855
38	4	1	0.9319999999999854
38	8	1	0.829
38	9	2	0.504
38	13	1	0.494
38	16	1	0.691
38	19	1	0.428
38	22	2	0.515
38	25	1	0.381
38	26	1	0.654
38	27	1	0.537
38	32	1	0.732
38	40	1	0.518
38	44	1	0.578
38	46	1	0.43
38	48	1	0.6159999999999709
38	51	1	0.587
38	53	2	0.586
38	54	2	0.577
38	56	1	0.694
38	57	1	0.892
38	65	1	0.423
38	68	2	0.602
38	72	1	0.772
38	76	1	0.516
38	80	1	0.529
38	82	2	0.742
38	85	1	0.711
38	86	1	0.475
38	90	1	0.441
38	93	2	0.878
38	98	1	0.587
38	101	2	0.659
38	104	1	0.396
38	109	2	0.541
38	112	2	0.995
38	115	2	0.685
38	118	1	0.599
38	120	2	0.694
39	2	2	1.6933800000697374
39	4	1	1.6256199998315424
39	9	2	1.5372800000477582
39	13	1	1.461684999987483
39	16	1	1.297264999942854
39	19	1	1.2319650000426918
39	22	1	1.4906699999701232
39	25	1	1.369084999896586
39	27	1	1.311744999838993
39	32	1	1.367839999962598
39	40	1	0.24221999989822507
39	44	1	1.3027699999511242
39	46	1	1.477350000059232
39	48	2	1.2736949999816716
39	51	1	1.2539749999996277
39	53	1	1.4065000000409782
39	56	1	1.5157899998594075
39	65	1	1.375010000076145
39	68	1	0.4274999999906868
39	72	1	0.8261649999767542
39	76	1	1.2097500001545995
39	80	1	1.4516450001392514
39	82	1	1.2941749999299643
39	86	1	0.3025950000155717
39	90	1	1.426454999949783
39	93	1	1.229835000121966
39	98	1	0.9361349998507648
39	101	1	1.4622599999420345
39	109	1	0.1835749999154359
39	112	1	1.412925000069663
39	115	2	1.3076199998613447
39	118	1	1.5624800000805408
40	2	1	0.45711999999912223
40	4	1	0.3359700000000885
40	8	1	0.2953450000004668
40	9	2	0.47415499999985333
40	13	2	0.3642049999998417
40	16	2	0.29889000000004307
40	19	1	0.9132000000008557
40	22	1	0.4075949999987788
40	25	1	0.6017650000012654
40	26	2	0.8480999999992491
40	27	1	0.7375300000003481
40	32	2	0.7527599999993981
40	40	2	0.981325000000652
40	44	2	0.4929699999993318
40	46	1	0.7101699999984703
40	48	1	0.6339200000002165
40	51	2	0.46234499999991385
40	53	1	0.8367450000005192
40	54	2	0.8242150000005495
40	56	1	0.8422950000003911
40	57	1	0.6656199999997625
40	60	2	0.5169150000001537
40	65	2	0.7561699999987613
40	68	1	0.5134749999997439
40	72	2	0.48644499999861
40	76	2	0.6626049999995739
40	80	2	0.9123400000007824
40	82	2	0.7560249999988009
40	85	1	0.5569650000015972
40	86	1	0.8473400000002584
40	90	2	1.141085000001127
40	93	2	0.44341999999963444
40	98	2	0.7244149999987567
40	101	1	0.961949999999022
40	104	1	0.7034899999998743
40	109	1	0.798489999999234
40	112	2	0.7989700000016601
40	115	1	0.79253000000061
40	118	2	0.686625000000291
40	120	2	0.6799150000006193
41	2	2	1.0402149995788932
41	4	1	0.8326400006189942
41	8	2	0.4253749996423722
41	13	2	0.4837250001728534
41	16	1	1.0537350000813603
41	19	1	0.37381500005722046
41	22	1	0.7677199998870492
41	25	1	0.5045049991458654
41	26	1	0.5043900003656745
41	27	1	0.5705450000241399
41	32	2	0.6291200006380677
41	40	1	0.4821099992841482
41	44	1	0.5784100005403161
41	46	1	0.5591949997469783
41	48	2	0.8346699997782707
41	51	1	0.7947299992665648
41	53	1	0.7647850001230836
41	54	1	0.5718350000679493
41	56	1	0.5338150002062321
41	57	1	0.5671149995177984
41	60	1	0.5878349998965859
41	65	1	0.6602300005033612
41	68	1	0.5917849997058511
41	72	1	0.5747699998319149
41	76	1	0.5808850005269051
41	80	1	0.7088900003582239
41	82	1	0.8293199995532632
41	85	1	0.8749649999663234
41	86	1	0.6008049994707108
41	90	1	0.5806700000539422
41	93	2	0.6438749991357327
41	98	1	0.5218000002205372
41	101	1	0.6517600007355213
41	104	2	0.8513799998909235
41	109	1	0.5836600000038743
41	112	2	0.5103050004690886
41	115	2	0.6340250000357628
41	118	1	0.4338149996474385
41	120	1	1.224299999885261
42	2	1	0.5053699999116361
42	4	1	0.4894550000317395
42	8	1	0.4268150000134483
42	9	1	0.8388350000604987
42	13	1	0.8942000000970438
42	16	1	0.5800250000320375
42	19	1	0.5564949999097735
42	22	1	0.6504150000400841
42	25	1	0.643940000096336
42	26	1	0.8142049999441952
42	27	1	0.7426699999487028
42	32	1	0.6116149999434128
42	40	1	0.6070299999555573
42	44	1	0.7400900000939146
42	46	1	0.6233500000089407
42	48	1	0.6753050000406802
42	51	1	0.6409899999853224
42	53	1	0.6390899999532849
42	54	1	0.585664999904111
42	56	1	0.5972800001036376
42	57	1	0.8303150000283495
42	60	1	0.6563450000248849
42	65	2	0.567685000016354
42	68	1	0.5743250000523403
42	72	2	0.4929149999516085
42	76	1	0.9130049999803304
42	80	2	0.7900249999947846
42	82	2	0.5714400000870228
42	85	1	0.5847300000023097
42	86	1	0.6583999999566004
42	90	1	0.4351800000295043
42	93	2	1.083585000014864
42	98	1	1.2416299999458715
42	101	2	1.2481599999591708
42	104	1	0.5880050000268966
42	109	1	0.6826250000158325
42	112	2	0.5457849999656901
42	115	1	0.4562700000824407
42	118	2	0.34536999999545515
42	120	2	0.44678999995812774
43	2	2	1.174
43	4	2	1.319
43	8	1	1.206
43	9	2	1.153
43	13	2	1.199
43	16	1	1.221
43	19	1	1.257
43	22	1	1.215
43	25	1	1.165
43	26	1	1.157
43	27	1	1.154
43	32	1	1.215
43	40	2	1.198
43	44	1	1.126
43	46	1	1.129
43	48	1	1.1
43	51	1	1.101
43	53	1	1.16
43	54	1	1.114
43	56	1	1.081
43	57	1	1.095
43	60	1	1.046
43	65	1	1.095
43	68	1	1.202
43	72	1	1.166
43	76	1	1.03
43	80	1	1.292
43	82	2	1.182
43	86	2	1.016
43	90	2	1.108
43	93	2	1.019
43	98	2	1.137
43	101	2	1.084
43	104	2	1.164
43	109	2	1.107
43	112	2	1.136
43	115	2	1.133
43	118	2	1.016
43	120	2	1.186
44	9	2	0.9915800000017044
44	13	2	1.4173899999950663
44	16	2	0.7024749999982305
44	19	2	0.6638100000054692
44	25	2	1.0109949999969106
44	26	2	1.7147900000054506
44	27	2	0.3530400000017835
44	32	2	1.2902649999959976
44	40	2	1.3162999999985914
44	44	2	1.290884999994887
44	46	2	1.6620550000006915
44	48	2	0.6254600000029313
44	51	2	0.6645649999991292
44	53	2	1.3337549999996554
44	54	2	1.3093099999969129
44	56	2	1.67871500000183
44	57	2	1.3855600000024424
44	60	2	1.5063050000026124
44	65	2	0.3458299999983865
44	68	2	1.6292350000003353
44	72	2	1.2904100000014296
44	76	2	0.5775450000001001
44	80	2	1.4178400000018885
44	82	2	0.38280500000109896
44	85	2	1.2941349999964586
44	86	2	1.3510650000025637
44	98	2	1.2874050000028219
44	101	2	1.421620000000927
44	104	2	1.295634999994887
44	109	2	1.4505750000025146
44	112	2	1.406309999998426
44	115	2	1.365700000002049
44	120	2	1.5726149999973131
45	2	2	0.4975499999982422
45	4	1	0.44103499999982887
45	8	1	0.5720199999996112
45	9	1	0.3554499999991385
45	13	2	0.4509699999998557
45	25	1	0.34771999999973924
45	26	2	0.28283499999996276
45	27	1	0.3554249999997555
45	32	1	0.5965199999991455
45	40	1	0.4896950000002398
45	44	1	0.6034949999993551
45	46	1	0.5679250000012107
45	48	1	0.4698449999996228
45	51	1	0.4734199999984121
45	53	1	0.783679999998596
45	54	1	0.5616049999989918
45	56	1	0.6074100000005564
45	57	1	0.5405799999989686
45	60	1	0.6838100000004633
45	65	1	0.5244050000001443
45	68	1	0.8003300000000163
45	72	1	0.6161899999988382
45	76	1	0.6310800000010058
45	80	1	0.5863850000005332
45	82	2	0.7144600000010105
45	85	1	0.5249349999994738
45	86	1	0.43290999999950874
45	90	2	0.4573199999995413
45	93	2	0.6177499999994761
45	98	1	0.312855000000156
45	101	1	0.586299999999057
45	104	1	0.18127000000094995
45	109	1	1.344074999999022
45	112	1	0.6998249999997206
45	115	2	0.9648450000004376
45	118	2	0.6327300000012619
45	120	2	0.8972899999989895
46	2	2	0.8067250000312924
46	4	1	0.5593949998728931
46	8	2	1.0541999998968097
46	9	2	0.5968700000084937
46	13	1	0.6296500000171363
46	16	2	0.6379050000105053
46	19	1	0.6444300001021475
46	22	1	0.5599599999841303
46	25	2	0.5801800000481308
46	26	2	0.7306450000032783
46	27	1	0.3990300002042204
46	32	1	0.47197999991476536
46	40	1	0.42547999997623265
46	44	1	0.5661950001958758
46	46	2	0.8529499999713153
46	48	2	0.8144249999895692
46	51	2	0.5965750000905246
46	53	1	0.4643350001424551
46	54	2	0.9833599999547004
46	56	1	0.436879999935627
46	57	1	1.0365400000009686
46	60	1	0.7132699999492615
46	65	2	0.5886699999682605
46	68	1	0.4363800000865013
46	72	2	0.5687200000975281
46	76	2	0.8007449998985976
46	80	1	0.3827149998396635
46	82	2	0.8155650000553578
46	85	1	0.6838049998041242
46	86	1	0.7446900000795722
46	90	1	0.3165850001387298
46	93	2	0.42664499999955297
46	98	1	0.3389400001615286
46	101	1	0.7113349998835474
46	104	1	0.4251650001388043
46	109	1	0.6413549999706447
46	112	1	0.37287500011734664
46	115	2	0.6230750000104308
46	118	2	0.7812799999956042
46	120	2	0.5722400001250207
47	2	1	0.45018500002333894
47	4	1	0.5068699999828823
47	8	2	0.5998700000345707
47	9	1	0.31215999997220933
47	13	2	0.7358649999951012
47	16	1	0.757819999998901
47	19	1	0.5237449999549426
47	22	1	1.1974850000115111
47	25	1	0.3220500000170432
47	26	2	0.912140000029467
47	27	1	0.4690350000164472
47	32	1	0.5560699999914505
47	40	1	0.31833500001812354
47	44	2	0.5555850000237115
47	46	1	0.4401150000048802
47	48	1	0.5479650000343099
47	51	2	0.45922499999869615
47	53	1	0.42308999999659136
47	54	1	0.6150250000064261
47	56	1	0.5631000000284985
47	57	2	0.7149449999560602
47	60	2	0.8090899999951944
47	65	1	0.5223299999488518
47	68	2	0.5960250000352971
47	72	1	0.540949999995064
47	76	2	0.5133149999892339
47	80	1	0.29894499998772517
47	82	1	0.6148900000262074
47	85	1	0.4094399999594316
47	86	1	0.3972300000023097
47	90	1	0.7300950000062585
47	93	2	0.4415150000131689
47	98	1	0.3214450000086799
47	101	1	0.7530799999949522
47	104	1	0.4715950000099838
47	109	2	0.5839200000045821
47	112	1	0.35577500000363216
47	115	2	0.8252799999900162
47	118	1	0.428795000014361
47	120	1	0.3935650000348687
48	2	1	1.3348300000070594
48	4	1	1.207139999984065
48	8	2	1.2159099999989849
48	9	2	1.1947649999929126
48	13	1	1.1919849999831058
48	16	1	1.195350000023609
48	19	1	1.1718399999954272
48	22	2	1.0356549999851268
48	25	1	1.206030000001192
48	26	2	1.0517449999751989
48	27	1	1.230024999997113
48	32	1	1.2443900000071153
48	40	1	1.0419850000180304
48	44	1	1.2228100000065751
48	46	2	1.2047749999910593
48	48	2	1.2085949999745935
48	51	1	1.1459100000211038
48	53	2	1.1604050000023562
48	54	1	0.8585350000066683
48	56	2	1.2581000000063796
48	57	2	1.1937700000125917
48	60	2	1.1769750000094064
48	65	1	1.2190000000118744
48	68	2	1.200749999989057
48	72	2	1.1670649999869056
48	76	1	1.3039050000079442
48	80	2	1.176625000021886
48	82	2	1.2466150000109335
48	85	2	1.3009949999977837
48	86	2	1.3881899999978486
48	93	2	1.11316499998793
48	98	2	1.410714999976335
48	101	2	1.381215000001248
48	104	1	1.2145499999751337
48	109	1	1.099914999998873
48	112	2	1.2447600000014063
48	115	1	1.3069099999847822
48	120	2	1.3025650000199676
49	2	1	0.6145500000566244
49	4	1	0.49347499990835786
49	8	2	0.9049599999561906
49	13	2	0.4583850000053644
49	16	1	0.29343500011600554
49	19	2	0.4735649998765439
49	22	2	0.5058299999218434
49	25	1	0.7562150000594556
49	26	2	0.34981500008143485
49	27	2	0.34905499988235533
49	32	2	0.7061900000553578
49	40	1	0.7744299999903888
49	44	1	0.7908550000283867
49	46	1	0.5921650000382215
49	48	1	0.6335800001397729
49	51	1	0.6879249999765307
49	53	1	0.5730750001966953
49	54	1	0.5427449999842793
49	56	1	0.7462550001218915
49	57	1	0.4905449999496341
49	60	1	0.7052299999631941
49	65	1	0.586379999993369
49	68	1	1.2451700000092387
49	72	2	1.463685000082478
49	76	1	0.5679800000507385
49	80	1	0.6278949999250472
49	82	2	0.48946499987505376
49	85	2	0.5892050000838935
49	86	1	0.6481449999846518
49	90	1	0.41844499995931983
49	93	1	0.35775000019930303
49	98	2	0.6715899999253452
49	101	2	0.7095500000286847
49	104	1	0.9230799998622388
49	109	2	0.6835600000340492
49	112	1	1.133600000059232
49	115	2	0.9233349999412894
49	118	1	0.4713850000407547
49	120	1	0.6196850000414997
50	2	1	0.507
50	4	1	0.505
50	8	1	0.603
50	13	2	0.683
50	16	1	0.99
50	19	1	0.628
50	22	1	0.548
50	25	1	0.974
50	26	1	0.584
50	27	1	0.542
50	32	1	0.995
50	40	1	0.399
50	44	1	1.063
50	46	1	0.473
50	48	1	0.768
50	51	1	0.994
50	53	1	0.571
50	54	1	0.425
50	56	1	0.709
50	57	2	0.801
50	60	1	0.726
50	65	1	0.744
50	68	1	0.639
50	72	1	0.483
50	76	1	0.654
50	80	1	0.601
50	82	1	0.631
50	85	1	0.826
50	86	1	0.558
50	90	1	0.452
50	93	1	0.601
50	98	1	0.365
50	101	1	0.351
50	104	1	0.42
50	109	1	0.567
50	112	1	0.423
50	115	2	0.973
50	118	1	0.699
50	120	1	0.578
51	2	1	1.226970000003348
51	4	1	0.6450900000054389
51	8	1	1.2450449999887496
51	9	1	1.5672950000007404
51	13	1	1.3116750000044703
51	16	1	1.2494400000141468
51	19	1	1.2633000000059835
51	22	1	1.251349999991362
51	25	1	1.2646349999995437
51	26	1	1.4522499999875436
51	27	1	1.246160000009695
51	32	2	1.2707450000016252
51	40	1	1.179839999997057
51	44	2	1.4724549999955343
51	46	1	1.2524449999909848
51	48	2	1.3705900000059046
51	51	1	1.2040149999957066
51	53	1	1.0070899999991523
51	54	1	1.2636150000034831
51	56	2	1.396085000000312
51	57	1	1.3409449999890055
51	60	1	1.3857350000034785
51	65	1	1.371354999995674
51	68	2	1.4009150000056252
51	72	1	1.3216899999970335
51	82	1	1.5317849999992177
51	85	1	1.454765000002226
51	86	1	1.3458799999934854
51	90	1	1.3033500000019558
51	93	1	1.6220900000043912
51	98	1	1.280784999995376
51	101	1	1.3140950000088196
51	104	1	1.2940749999979744
51	109	1	1.2306749999988824
51	112	1	1.275920000000042
51	115	1	1.4170599999924889
51	118	1	1.2801949999993667
51	120	1	0.8843199999973876
52	2	1	0.6226500000339001
52	4	1	0.44409499992616475
52	8	1	0.5547249999362975
52	13	2	0.6892749998951331
52	16	1	0.967339999973774
52	19	1	0.9546499999705702
52	22	1	0.6371049999725074
52	25	1	1.052409999887459
52	26	1	0.7885200000600889
52	27	1	0.6594399999594316
52	32	1	0.6419000000460073
52	40	1	0.6180200000526384
52	44	1	0.659319999977015
52	46	2	1.107399999978952
52	48	2	0.7980149999493733
52	51	2	0.6764349999139085
52	53	2	0.6118150000693277
52	54	2	0.9848250000504776
52	56	1	0.6819350000005215
52	57	1	0.8225500000407919
52	60	1	0.8886700000148267
52	65	1	0.8082050000084564
52	68	1	0.7548149999929592
52	72	2	0.9146750000072644
52	76	1	0.8535200000042096
52	80	2	1.116124999942258
52	82	2	0.4651650000596419
52	85	2	0.6393049999605864
52	86	1	0.7979599999962375
52	90	2	0.8636900000274181
52	93	1	0.5846499999752268
52	98	2	0.44183499994687736
52	101	1	0.5489700000034645
52	104	1	1.15616500005126
52	109	2	0.6758499999996275
52	112	1	0.5667699999175966
52	115	2	0.9180650000926108
52	118	2	0.42939999990630895
52	120	2	0.6417150000343099
53	2	1	0.348
53	4	1	0.315
53	8	1	0.424
53	9	1	0.814
53	13	1	0.437
53	16	1	0.751
53	19	1	0.572
53	22	1	0.404
53	25	1	0.978
53	26	1	0.675
53	27	1	0.482
53	32	2	0.887
53	40	2	0.7
53	44	1	0.884
53	46	1	0.472
53	48	1	0.765
53	51	1	0.721
53	53	1	0.818
53	54	1	0.464
53	56	1	0.511
53	57	1	0.577
53	60	1	0.627
53	65	1	0.676
53	68	2	0.843
53	72	2	0.775
53	76	1	0.719
53	80	1	0.837
53	82	2	0.643
53	85	1	0.434
53	86	1	0.53
53	90	2	0.606
53	93	2	0.533
53	98	1	1.171
53	101	1	0.882
53	104	2	0.577
53	109	1	0.832
53	112	1	0.847
53	115	1	1.206
53	118	2	0.96
53	120	2	0.624
54	2	2	0.3926900000078603
54	4	2	0.4857000000774861
54	8	1	1.043999999994412
54	9	1	0.6782550000352785
54	13	2	0.5245550000108778
54	16	2	0.7941550000105053
54	19	2	0.5769950000103563
54	22	1	0.3823450000490993
54	25	1	0.6300899999914691
54	26	2	0.7364400000078604
54	27	1	0.4822949999943376
54	32	2	0.6532700000097975
54	40	1	0.6744800000451505
54	44	1	0.5999699999811128
54	46	1	0.4617749999742955
54	48	1	0.47974999994039536
54	51	1	0.46498500008601695
54	53	1	0.4416749998927117
54	54	1	0.3855749999638647
54	56	1	0.3476449999725446
54	57	1	0.4980550000909716
54	60	2	0.5179599999682978
54	65	1	0.421669999952428
54	68	2	0.5367550000082701
54	72	2	0.688884999952279
54	76	2	0.4058899999363348
54	80	2	0.5777300000190735
54	82	2	0.9950800000224262
54	85	2	0.410304999910295
54	86	1	0.4403300000121817
54	90	2	0.9537550000241026
54	93	1	0.5008950000628829
54	98	1	0.5655300000216812
54	101	1	0.5155650000087917
54	104	2	0.8727100000251085
54	109	2	0.887445000000298
54	112	1	0.4196150000207126
54	115	2	0.5564149999991059
54	118	2	1.052009999984875
54	120	2	0.5599099999526516
55	2	1	0.8009199999505654
55	4	1	0.368445000029169
55	8	1	0.7039749999530613
55	9	2	0.7480149999028072
55	13	2	0.6979999999748543
55	19	2	0.6435749999945983
55	22	2	0.9443849999224768
55	25	2	0.8901599999517202
55	26	1	0.8088250000728294
55	27	1	0.690500000026077
55	32	2	0.8657799999928102
55	40	2	1.0884450000012291
55	44	2	0.6293099999893457
55	46	1	1.0533699999796229
55	48	2	1.0420000000158325
55	51	1	0.660645000054501
55	53	2	1.1781550000887364
55	54	2	1.081800000043586
55	56	2	1.1777299999957904
55	57	2	1.1842000000178814
55	60	1	1.169759999960661
55	65	2	1.5122999999439344
55	68	2	1.4263600000413137
55	72	1	1.3305249999975786
55	76	2	1.356279999949038
55	80	1	1.4007350000320002
55	82	2	1.688194999936968
55	85	2	1.5539050000952557
55	86	2	0.8084950000047684
55	90	1	0.529975000070408
55	93	1	0.7002149999607354
55	98	1	0.6956550000468269
55	101	2	0.680530000012368
55	104	1	0.38644999999087304
55	109	1	0.4422900000354275
55	112	1	0.9623999999603255
55	115	2	1.0234199999831615
55	118	2	0.8553649999666959
55	120	2	0.9044999999459832
56	2	1	0.5194000000000233
56	4	1	1.315100000000006
56	8	1	1.4287999999999883
56	9	2	1.4437999999999884
56	13	1	1.2236000000000058
56	16	1	1.2135
56	19	1	1.3466999999999822
56	22	1	1.3346000000000058
56	26	1	1.2183999999999942
56	27	1	1.1856000000000058
56	32	1	1.2809000000000232
56	40	1	1.1957000000000115
56	44	1	1.361399999999965
56	46	1	1.2242999999999884
56	48	1	1.253100000000035
56	51	1	1.4409000000000234
56	53	1	1.2012999999999883
56	54	1	1.3353000000000466
56	56	1	1.4457000000000115
56	57	1	1.2447999999999884
56	60	2	1.2352000000000116
56	65	2	1.241399999999965
56	68	1	1.0404000000000233
56	72	1	1.5783999999999652
56	76	2	1.5342999999999885
56	80	1	1.2749000000000232
56	82	2	1.3342000000000116
56	85	2	1.376
56	86	1	1.204
56	90	1	1.2607000000000117
56	93	1	1.0212999999999883
56	98	1	1.203
56	104	1	1.2137000000000115
56	109	1	1.2322999999999884
56	112	1	0.95
56	115	2	1.3095999999999768
56	118	1	1.2178999999999651
56	120	1	1.4610999999999768
57	2	1	0.3488650000654161
57	4	1	0.4279799999203533
57	8	1	0.27417000010609627
57	9	1	0.7416800002101809
57	13	1	0.7342550000175834
57	16	1	0.5609649999532849
57	19	1	0.35617000004276633
57	22	1	0.69112000009045
57	25	1	0.8363900000695139
57	26	1	0.5830200000200421
57	27	1	0.3000149999279529
57	32	2	0.9435199999716132
57	40	1	0.5683150000404567
57	44	2	0.5331600001081824
57	46	1	0.8040299999993294
57	48	1	0.7878750001545995
57	51	1	0.3581549997907132
57	53	1	0.8779749998357147
57	54	1	0.6367000001482666
57	56	1	0.6054699998348951
57	57	1	0.625874999910593
57	60	1	1.0689250000286847
57	65	1	0.2697600000537932
57	68	1	0.5800600000657141
57	72	2	0.3415700001642108
57	76	1	0.3581049998756498
57	80	1	0.6300699999555945
57	82	1	0.8929999999236315
57	85	1	0.7697550000157207
57	86	1	0.6517350000794977
57	90	1	0.40048499987460673
57	93	1	0.5533350000623614
57	98	1	0.3862499999813735
57	101	1	0.5706249999348074
57	104	2	0.5371150001883507
57	109	2	0.7388949999585748
57	112	1	0.7192649999633431
57	115	1	0.7423499999567866
57	118	1	0.6431799998972565
57	120	1	1.194059999892488
58	2	2	1.6006100000013248
58	4	1	1.261914999999135
58	8	2	1.4001050000006217
58	9	2	1.2539300000025833
58	13	2	1.2910000000010768
58	16	1	1.2143150000010792
58	19	1	1.2518700000000536
58	22	1	1.2203799999988405
58	25	1	1.4377949999980046
58	26	2	1.3666300000004412
58	27	2	1.399234999997134
58	32	1	1.3143349999991187
58	40	1	1.2811000000001511
58	44	1	1.2544849999976575
58	46	1	1.20765499999834
58	48	2	1.3123999999988882
58	51	2	1.415515000000596
58	53	1	1.270410000000993
58	54	1	1.28125
58	56	2	1.537335000000894
58	57	1	1.2962449999977252
58	60	1	1.1994950000007811
58	65	1	1.2926750000005705
58	68	2	1.245070000000822
58	72	2	1.1817550000014017
58	76	2	1.243640000000596
58	80	1	1.2244500000015832
58	82	2	1.249264999998617
58	85	2	1.213390000000771
58	86	1	1.5650350000032922
58	90	2	1.248410000000149
58	93	2	1.2412750000003143
58	98	1	1.264964999998454
58	101	2	1.2442600000031523
58	104	2	1.1911700000019045
58	112	2	1.3000000000029104
58	115	1	1.2765949999993318
58	118	1	1.223249999999069
58	120	1	1.1935449999982377
