subjID	trial	choice	RT
1	2	1	0.6623500000005151
1	4	1	0.6962550000007468
1	8	1	0.7400649999999587
1	9	2	0.8121250000003783
1	13	2	1.0151949999999488
1	16	1	0.7659100000000908
1	19	2	0.8051749999994936
1	22	1	0.5639699999992154
1	25	2	0.7800549999992945
1	26	1	0.5068449999998557
1	27	1	0.6667300000008254
1	32	2	0.800695000001695
1	40	2	0.8070250000000815
1	44	2	0.8696949999994249
1	46	1	0.6292450000000827
1	48	2	0.8247999999985332
1	51	2	0.7076000000015483
1	53	2	0.8987550000001502
1	54	1	0.6299550000003074
1	56	2	0.681590000000142
1	57	1	0.9974149999998044
1	60	2	0.8501299999988987
1	65	2	0.7323300000007148
1	68	2	0.7042849999997998
1	72	2	0.7259649999996182
1	76	2	0.670044999998936
1	80	2	0.700579999998794
1	82	2	0.8531950000015204
1	85	2	0.9704750000000932
1	86	2	0.8696999999993131
1	90	2	0.7691049999993993
1	93	1	0.8737650000002468
1	98	2	0.7456349999993108
1	101	2	0.6908100000000559
1	104	2	0.6815650000008172
1	109	2	0.8125399999989895
1	112	2	0.9312650000010616
1	115	2	0.90625
1	118	2	0.9306599999999744
1	120	2	1.1452900000003865
2	2	1	0.5774150000652298
2	4	1	0.3129200000548735
2	8	1	1.230059999972582
2	9	1	0.8936550000216812
2	13	1	0.4850150001002475
2	16	1	0.6613800000632182
2	19	1	0.5254349999595433
2	22	1	0.5006350000621751
2	25	2	0.5516000000061467
2	26	1	0.4464000000152737
2	27	1	0.49284500000067055
2	32	1	0.39495999994687736
2	40	1	0.37866499996744096
2	44	1	0.4175249999389053
2	46	1	0.4048850000835955
2	48	1	0.4225350000197068
2	51	1	0.45268499990925193
2	53	1	0.4273350000148639
2	54	1	0.4423899999819696
2	56	1	0.30752000003121793
2	57	1	0.5253650000086054
2	60	1	0.4015099999960512
2	65	2	0.6095849999692291
2	68	1	0.7388949999585748
2	72	2	0.4574150000698865
2	76	2	0.4406899999594316
2	80	2	0.44088500004727393
2	82	2	0.5309099999722093
2	85	2	0.5122749999864027
2	86	1	0.4968750000698492
2	90	1	0.4800549999345094
2	93	1	0.5814900000113994
2	98	1	0.3124400000087917
2	101	1	0.5111699999542907
2	104	2	0.5044600000837818
2	109	1	0.37430000002495944
2	112	1	0.4942550000268966
2	115	1	0.47121500002685934
2	118	1	0.5595850000390783
2	120	1	0.5443049999885261
3	2	1	0.367009999928996
3	4	1	0.3595849999692291
3	8	1	0.443144999910146
3	9	2	0.4985150001011789
3	13	2	0.4213349998462945
3	16	1	0.6160600001458079
3	19	1	0.7979399999603629
3	22	2	0.5395499998703599
3	25	2	0.509614999871701
3	26	2	0.4812149999197573
3	27	1	0.8303449999075383
3	32	2	0.44870500010438263
3	40	2	0.4947749997954816
3	44	2	0.4385649999603629
3	46	1	0.5256799999624491
3	48	2	0.6088250000029802
3	51	2	0.5623050001449883
3	53	2	0.4946250000502914
3	54	1	0.7023400000762194
3	56	1	0.5362600001972169
3	57	1	0.6128950000274926
3	60	1	0.4877300001680851
3	65	1	0.48472000006586313
3	68	2	0.7002400001510978
3	72	1	0.5979649999644607
3	76	2	0.6599600000772625
3	80	1	0.6190199998673052
3	82	1	0.8230749999638647
3	85	1	0.6678100000135601
3	86	1	0.5817749998532236
3	90	1	0.6881900001317263
3	93	1	0.7564749999437481
3	98	1	0.4859899999573827
3	101	1	0.741440000012517
3	104	2	0.5385050000622869
3	109	1	0.4231700000818819
3	112	1	0.5000699998345226
3	115	2	0.6168150000739843
3	118	2	0.5001999998930842
3	120	2	0.8477999998722225
4	2	1	0.585
4	4	1	0.614
4	8	1	0.941
4	9	1	1.317
4	13	1	1.067
4	16	1	0.928
4	19	1	0.788
4	22	1	0.82
4	25	1	0.74
4	26	2	1.289
4	27	2	0.737
4	32	1	0.598
4	40	1	1.062
4	44	2	0.92
4	46	1	0.795
4	48	2	1.074
4	51	1	0.435
4	53	1	0.85
4	54	1	0.746
4	56	1	0.696
4	57	1	0.96
4	60	1	0.939
4	65	1	0.672
4	68	1	0.845
4	72	2	0.799
4	76	1	0.614
4	80	2	0.886
4	82	2	0.757
4	85	2	0.661
4	86	2	1.129
4	90	1	0.879
4	93	1	0.823
4	98	2	0.883
4	101	1	1.125
4	104	2	0.955
4	109	2	0.824
4	112	1	0.575
4	115	1	0.807
4	118	1	0.843
4	120	2	0.877
5	2	1	0.44293000001925975
5	4	1	0.3499500000034459
5	8	1	0.3654849999875296
5	9	1	0.6589549999916926
5	13	2	0.3856450000021141
5	16	1	0.4262049999961164
5	19	2	0.47181499999715015
5	22	1	0.768355000007432
5	25	1	0.5314199999847915
5	26	2	0.7006950000068173
5	27	1	0.8349300000118092
5	32	1	0.46633500000461936
5	40	1	0.4536249999946449
5	44	1	0.35143500001868233
5	46	2	0.600479999993695
5	48	2	0.4036599999817554
5	51	1	0.5630650000239257
5	53	1	0.44945499999448657
5	54	1	0.33877500001108274
5	56	2	0.5944599999929778
5	57	2	0.4891700000152923
5	60	1	0.533129999996163
5	65	1	0.543805000022985
5	68	2	0.5539699999790173
5	72	2	0.537095000006957
5	76	1	0.6260950000141747
5	80	1	0.4875000000174623
5	82	1	0.7020400000037625
5	85	1	0.5455850000143982
5	86	1	0.4874499999859836
5	90	2	0.5018700000073295
5	93	1	0.48847000001114793
5	98	2	0.5417500000039581
5	101	2	1.5308550000190735
5	104	1	0.6146699999808334
5	109	1	0.5416850000037812
5	112	2	0.5251600000192411
5	115	1	0.5142749999940861
5	118	2	0.566194999992149
5	120	1	0.6482750000141095
6	2	1	1.486975000007078
6	4	1	1.316965000005439
6	8	1	1.309224999975413
6	9	1	1.5874349999940025
6	13	1	1.4299250000040047
6	16	2	1.3585200000088662
6	19	1	1.3607649999903515
6	22	1	1.437900000018999
6	25	1	1.2904750000452625
6	26	1	1.337424999976065
6	27	1	1.2927100000088103
6	32	1	1.2680699999909848
6	40	1	1.3393149999901652
6	44	1	1.4075900000170805
6	46	1	1.3321049999794925
6	48	1	1.5058099999441763
6	53	2	1.4137350000091828
6	54	1	1.4865650000283497
6	56	1	1.3075049999752082
6	57	1	1.3049449999816716
6	60	1	1.337195000029169
6	65	1	1.2976650000200607
6	68	1	1.2750649999943562
6	72	1	1.3017249999684282
6	80	1	1.2999500000150874
6	82	1	1.3595649999915622
6	85	1	1.2812249999842606
6	86	1	1.3025050000287592
6	90	1	1.3303749999613501
6	93	1	1.298064999980852
6	98	1	1.2865750000346452
6	101	1	1.487299999978859
6	104	1	1.3453449999797158
6	109	1	1.355329999991227
6	112	1	1.349994999996852
6	115	1	1.4099850000347942
6	118	2	0.83390500000678
6	120	1	1.4303649999783374
7	2	2	0.6968049999995856
7	8	1	0.4006749999989552
7	9	1	0.538074999998571
7	13	2	0.6427650000005087
7	16	2	0.918680000000677
7	19	2	0.5931299999992771
7	22	1	0.989185000000376
7	25	2	0.4591450000007171
7	26	1	0.4138750000002037
7	27	1	0.3845849999997881
7	32	2	0.40619999999942963
7	40	1	0.4480400000011141
7	44	2	0.40215999999962515
7	46	2	0.6319400000011083
7	48	1	0.636900000001362
7	51	2	0.6720800000002782
7	53	1	0.489385000000766
7	54	1	0.5653400000010151
7	56	1	0.3753699999997334
7	57	1	0.40346999999927363
7	60	1	0.6727100000007485
7	65	2	0.5537600000007078
7	68	1	0.6810249999998487
7	72	2	0.4819600000009523
7	76	2	0.4762300000002142
7	80	1	0.4710649999997113
7	82	2	0.47133000000030734
7	85	2	0.4893700000011595
7	86	1	0.3279849999999278
7	90	1	0.36493999999947846
7	93	1	0.432134999999078
7	98	1	0.42149000000063097
7	101	1	0.3167649999995483
7	104	2	0.3847349999996368
7	109	2	0.5100199999997276
7	112	2	0.699400000001362
7	115	2	0.5350949999992736
7	118	2	0.5118149999998277
7	120	1	0.6665700000012293
8	2	1	0.5708050000248477
8	4	1	0.3568949999753386
8	8	2	0.574750000028871
8	9	2	0.5622300000395626
8	13	1	0.7110600000014529
8	16	1	0.618709999951534
8	19	2	0.5540400000754744
8	22	1	0.6944999999832362
8	25	1	0.6859600000316277
8	26	1	0.5466249999590218
8	27	2	0.5037449999945238
8	32	1	0.6055300000589341
8	40	2	0.5694499999517575
8	44	1	0.654839999973774
8	46	2	0.6947400000644848
8	48	2	0.5980250000720844
8	51	2	0.7271049999399111
8	53	1	1.0601700000697747
8	54	2	0.726384999928996
8	56	1	0.6742649999214336
8	57	1	0.5551899999845773
8	60	1	0.7606649999506772
8	65	1	0.9238750000949948
8	68	1	0.5486999999266118
8	72	1	0.44049499998800457
8	76	2	0.5372849999694154
8	80	2	0.3394100000150502
8	82	2	0.6917100000428036
8	85	2	0.6130200000479817
8	86	1	0.37508000002708286
8	90	1	0.25002999999560416
8	93	1	0.49721499998122454
8	98	1	0.2575700000161305
8	101	1	0.5888150000246242
8	104	2	0.5757900000317022
8	109	2	0.7310350000625476
8	112	2	0.6336549998959526
8	115	1	0.4937950000166893
8	118	2	0.4137949999421835
8	120	2	0.9096000000135972
9	8	1	0.6453350000010687
9	9	2	0.3859750000010536
9	13	1	0.5222350000003644
9	16	2	0.37210500000219326
9	19	1	0.6855599999980768
9	22	1	0.41542000000117696
9	25	1	0.4417300000022806
9	26	1	0.5686150000001362
9	27	1	0.5023550000005343
9	32	2	0.4851250000028813
9	40	1	0.4558350000006613
9	44	1	0.43440000000191503
9	46	1	0.35182500000155414
9	48	1	0.4563799999996263
9	51	1	0.557039999999688
9	53	1	0.633030000000872
9	54	1	0.5841199999995297
9	56	1	0.5868950000003679
9	57	1	0.5914899999988847
9	60	1	0.47826999999955294
9	65	1	0.6588900000024005
9	68	2	0.5973999999987427
9	72	1	0.4794000000001979
9	76	1	0.6142749999999069
9	80	1	0.37648999999871013
9	82	1	0.4245699999991921
9	85	1	0.476940000000468
9	86	2	0.49646999999822583
9	90	1	0.3773900000015274
9	93	1	0.4273750000029686
9	98	2	0.4244299999991199
9	101	1	0.37160500000033064
9	104	2	0.5459449999979697
9	109	1	0.5255800000013551
9	112	2	0.5530199999993783
9	115	1	0.4674899999990594
9	118	2	0.463079999997688
9	120	1	0.529804999998305
10	2	1	1.212790000019595
10	4	2	0.2672899999888614
10	8	2	0.4260249999933876
10	9	2	0.7601199999917299
10	13	2	0.9787099999957718
10	16	1	0.5056500000064261
10	19	2	1.1209950000047684
10	22	2	0.4325649999664165
10	25	2	0.3074800000176765
10	26	1	0.7573500000289641
10	27	2	0.5811099999700673
10	32	1	0.30230500001925975
10	40	1	0.5713349999859929
10	44	1	0.4350500000291504
10	46	2	1.4942949999822304
10	48	2	0.2575799999758601
10	51	1	0.3244200000190176
10	53	2	0.10731499997200444
10	54	2	0.25637999997707084
10	56	2	1.4609150000032969
10	57	2	0.273674999945797
10	60	1	0.5771700000041164
10	65	2	0.16992499999469146
10	68	1	0.4167850000085309
10	72	2	0.8701850000070408
10	76	2	0.7143400000059046
10	80	1	0.39361999998800457
10	82	1	0.30449499998940155
10	85	2	0.5050599999958649
10	86	1	0.44578000000910833
10	90	2	0.6227700000163168
10	93	1	0.4988000000012107
10	98	1	0.6559249999700114
10	101	1	0.30769500002497807
10	104	1	0.3333899999852292
10	109	2	0.5377100000041537
10	112	1	0.7089300000225194
10	115	1	0.3416950000100769
10	118	1	0.3089400000171736
10	120	2	0.4580299999797717
11	2	1	0.6516749999718741
11	4	1	0.3784150000428781
11	8	2	0.4850300000980496
11	9	1	0.48031000001356006
11	13	1	0.5352249999996275
11	16	1	0.5406649999786168
11	19	1	0.6061849999241531
11	22	1	0.4403150000143796
11	25	1	0.35540000000037253
11	26	2	0.7641699999803677
11	27	2	0.8038749999832362
11	32	2	0.6062999999849126
11	40	1	0.5499399999389425
11	44	2	0.39829000004101545
11	46	1	0.3723999999929219
11	48	1	0.7824199999449775
11	51	1	0.6654700000071898
11	53	2	0.6643349999794737
11	54	1	0.5665349999908358
11	56	1	0.4852549999486655
11	57	1	1.0328150000423193
11	60	2	0.7926549999974668
11	65	2	0.7192650000797585
11	68	1	0.4161999999778345
11	72	2	0.555104999919422
11	76	2	0.4764799999538809
11	80	1	1.0243999999947846
11	82	2	0.5618000000249594
11	85	1	0.4074950000504032
11	86	1	0.8016700000735
11	90	1	0.6922350000822917
11	93	2	0.6702650000806898
11	98	2	1.091164999990724
11	101	2	0.7954499999759719
11	104	1	0.8681850000284612
11	109	2	0.5501449999865144
11	112	1	0.6142400000244379
11	115	2	0.54480000003241
11	118	2	0.596045000012964
11	120	1	0.7597250000108033
12	2	1	0.7542550000362098
12	4	1	0.5164649999933317
12	8	2	0.506400000071153
12	9	2	0.667684999993071
12	13	2	0.6263599999947473
12	16	1	0.5969950000289828
12	19	1	0.9369799999985844
12	22	2	0.6715749999275431
12	25	1	0.4348250000039115
12	26	2	0.981900000013411
12	27	1	1.2238600000273436
12	32	2	0.7101150000235066
12	40	1	0.4819749998860061
12	44	1	0.4372549999970943
12	46	1	0.481195000000298
12	48	1	0.5171649999683723
12	51	1	0.7212999999755993
12	53	1	0.7724150000140071
12	54	1	0.6931099999928847
12	56	1	0.6554199999663979
12	57	1	0.7222850000252947
12	60	1	0.7175649999408051
12	65	1	0.9082749999361112
12	68	1	0.5757799999555573
12	72	2	0.5334250000305474
12	76	1	0.8702200000407174
12	80	2	0.97382000007201
12	82	2	0.3678899999940768
12	85	2	0.9893049999373034
12	86	1	0.49641999998129904
12	90	2	0.9035499999299644
12	93	2	0.69030500005465
12	98	2	1.0093249999918044
12	101	1	0.3988499999977648
12	109	1	0.8810799999628216
12	112	1	0.997994999983348
12	115	2	1.3467849999433383
12	118	2	0.6918900000164285
12	120	2	0.6670300000114366
13	2	1	0.452
13	4	1	0.491
13	8	1	1.698
13	9	2	0.679
13	13	1	0.55
13	16	1	0.545
13	19	1	0.787
13	22	1	1.083
13	25	1	1.512
13	26	1	0.643
13	27	2	1.375
13	32	2	1.038
13	40	2	1.06
13	44	2	0.993
13	46	1	1.292
13	48	2	1.005
13	53	1	1.618
13	54	1	0.767
13	56	1	0.726
13	57	1	0.953
13	60	1	0.431
13	65	1	0.963
13	68	2	0.934
13	72	1	1.61
13	76	1	0.731
13	80	1	0.867
13	82	1	0.731
13	85	2	1.398
13	86	1	0.663
13	90	2	1.025
13	93	2	0.963
13	98	1	1.358
13	101	1	0.588
13	104	1	0.617
13	109	1	0.687
13	112	1	0.935
13	115	1	0.683
13	118	2	0.834
13	120	1	0.796
14	2	2	1.273
14	4	1	1.496
14	8	2	1.517
14	9	2	1.233
14	13	2	1.24
14	16	2	1.459
14	19	1	1.28
14	22	1	1.301
14	25	2	1.294
14	26	2	1.205
14	27	2	1.297
14	32	2	1.164
14	40	2	1.372
14	44	1	1.406
14	46	2	1.157
14	48	1	1.227
14	51	1	1.21
14	53	1	1.464
14	54	1	1.243
14	56	1	1.306
14	57	1	1.377
14	60	2	1.03
14	65	2	0.997
14	68	2	1.385
14	72	2	1.222
14	76	2	1.285
14	80	1	1.078
14	82	2	1.222
14	85	2	1.502
14	90	2	1.424
14	93	2	1.23
14	98	2	1.394
14	101	2	1.256
14	104	1	1.336
14	109	1	1.505
14	112	1	1.462
14	115	1	1.546
14	118	1	1.518
14	120	1	1.359
15	4	1	0.608990000000631
15	8	2	0.6039549999986775
15	9	2	0.8722300000008545
15	13	1	0.6913300000014715
15	16	1	0.7886450000005425
15	19	1	0.6973700000016834
15	22	1	0.7875550000026124
15	25	1	0.5922449999998207
15	26	2	0.6234600000025239
15	27	1	0.614979999998468
15	32	1	1.0826400000005378
15	40	2	0.9270650000034948
15	44	1	1.0771800000002258
15	46	1	0.7584000000060769
15	48	1	0.6409649999986868
15	51	1	0.6191500000059023
15	53	1	0.6313799999988987
15	54	1	0.6622799999968265
15	56	1	0.460109999999986
15	57	1	0.4552350000012666
15	60	1	0.5687200000029407
15	65	1	0.9374900000038906
15	68	1	0.5576350000046659
15	72	2	1.0406800000055227
15	76	2	1.070110000000568
15	80	1	0.627424999998766
15	82	2	1.2455750000008263
15	85	1	0.6116750000001048
15	86	1	0.4170799999992596
15	90	1	0.6293050000022049
15	93	2	0.6252700000040932
15	98	2	0.9586850000050616
15	101	1	0.651914999994915
15	104	1	0.7038200000024517
15	109	1	0.646389999994426
15	112	2	0.922035000003234
15	115	1	0.5398449999993318
15	118	2	0.6411599999992177
15	120	2	0.6996700000017881
16	2	1	0.6604200000292622
16	4	1	0.35479000001214445
16	8	1	0.39361999998800457
16	9	1	0.7982000000192784
16	13	2	0.6154600000008941
16	16	1	0.5065950000425801
16	19	1	0.3408049999852665
16	22	1	0.34718000004068017
16	25	1	0.3672950000036508
16	26	1	0.4902199999778531
16	27	1	0.4575799999875017
16	32	1	0.41898499999661
16	40	1	0.6693899999954738
16	44	2	0.5580150000168942
16	46	1	0.759859999991022
16	48	1	0.2689050000044517
16	51	1	0.29484500002581626
16	53	2	0.5966650000191294
16	54	1	0.6806099999812432
16	56	1	0.3904949999996461
16	57	1	0.57658499997342
16	60	1	0.5915850000455976
16	65	1	0.2999199999612756
16	68	2	0.6316450000158511
16	72	2	0.3995100000174716
16	76	1	0.4606250000069849
16	80	2	0.3274000000092201
16	82	1	0.2846999999601394
16	85	2	0.3928550000418909
16	86	1	0.5916749999742024
16	90	1	0.3549549999879673
16	93	2	0.5306800000253133
16	98	2	0.4295799999963492
16	101	1	0.35104999999748543
16	104	2	0.6441699999850243
16	109	2	0.5064500000444241
16	112	1	0.5010999999940395
16	115	1	0.6516349999583326
16	118	2	0.34116999997058883
16	120	1	0.4837699999916367
17	2	1	0.37678500000038184
17	4	2	1.02262500001234
17	8	1	0.47129000001586974
17	13	2	0.8977699999813922
17	16	1	0.9095500000112224
17	19	1	0.9468399999896064
17	22	2	0.7871699999959674
17	25	1	0.6002999999909662
17	26	1	0.911854999983916
17	27	1	0.8690849999838974
17	32	1	0.8625749999773689
17	40	2	0.9180500000074971
17	44	1	0.9958299999998416
17	46	2	1.1328150000190362
17	48	1	1.0122050000063607
17	51	1	0.9447199999995064
17	53	2	0.9797700000053736
17	54	2	1.0499450000061188
17	56	1	1.1320850000192877
17	57	1	0.9681949999940116
17	60	1	0.9423550000065006
17	65	1	0.5362999999779277
17	68	2	1.0052100000029895
17	72	1	0.47601499999291264
17	76	1	0.4347450000059325
17	80	2	1.0535749999980908
17	82	1	1.0631850000063423
17	85	1	0.38330499999574386
17	86	1	0.8280499999818858
17	90	2	0.47106999999959953
17	93	1	0.5625249999866355
17	98	1	0.4594400000059977
17	101	2	1.0004449999833014
17	104	1	0.8478549999999814
17	109	1	0.5073749999864958
17	112	2	0.9767749999882652
17	115	1	0.9560200000123588
17	118	2	0.9098550000053364
17	120	1	1.207220000011148
18	2	1	0.499
18	4	1	1.205
18	8	1	0.449
18	9	1	0.407
18	13	1	0.865
18	16	1	0.677
18	19	1	0.41
18	22	1	0.622
18	25	1	0.404
18	26	1	0.589
18	27	1	0.872
18	32	1	0.64
18	40	1	1.115
18	44	1	0.874
18	46	1	0.451
18	48	1	0.718
18	51	1	0.939
18	53	1	0.759
18	54	1	0.795
18	56	1	0.699
18	57	1	0.649
18	60	1	0.534
18	65	1	0.744
18	68	1	0.583
18	72	1	0.629
18	76	1	0.94
18	80	1	0.456
18	82	1	0.694
18	85	2	0.825
18	86	1	0.73
18	90	2	0.522
18	93	2	0.701
18	98	1	0.878
18	101	1	0.702
18	104	1	0.715
18	109	1	0.432
18	112	2	0.48
18	115	1	0.411
18	118	2	0.517
18	120	2	0.58
19	2	1	0.30812000000150874
19	4	2	0.5150500000163447
19	8	1	0.5317599999834783
19	9	1	0.8552650000201538
19	13	2	0.8532750000013039
19	16	1	0.6544550000107847
19	19	1	0.7469350000028498
19	22	1	0.7059600000211503
19	25	1	0.679439999978058
19	26	2	0.6169899999804329
19	27	2	0.9347149999812244
19	32	2	0.5989850000187289
19	40	2	0.7921600000117905
19	44	1	0.8061799999850336
19	46	2	0.85070499998983
19	48	1	0.7457699999795295
19	51	1	0.7271849999960978
19	53	1	0.7067199999873992
19	54	1	0.659799999993993
19	56	1	0.7745500000019092
19	57	1	1.1223149999859745
19	60	2	0.7822549999982584
19	65	1	0.6331050000153482
19	68	1	0.39957500001764856
19	72	1	1.077305000013439
19	76	1	0.5606900000129826
19	80	1	0.6946400000015274
19	82	1	0.5422300000209361
19	85	2	0.6003750000090804
19	86	1	0.7185549999994691
19	90	1	0.7047500000044238
19	93	1	0.694164999993518
19	98	2	0.908125000016298
19	101	2	0.6521149999753106
19	104	1	0.40223999999579974
19	109	1	0.7553900000057183
19	112	2	0.5582899999863002
19	115	1	0.9044400000129826
19	118	1	0.8216550000070129
19	120	1	0.7336749999958556
20	2	1	1.489244999999995
20	4	1	0.91012999999999
20	9	1	1.0889699999997975
20	13	1	1.212425000000163
20	16	1	1.1084750000000059
20	19	1	0.39885499999992324
20	22	1	0.6759200000001292
20	25	1	1.406549999999697
20	26	2	1.465685000000114
20	27	1	1.4432149999997927
20	32	2	1.2334900000000488
20	40	1	1.1802600000000967
20	44	1	1.486750000000029
20	46	1	1.5615699999998323
20	48	2	0.5731449999998149
20	51	1	0.4232050000000454
20	53	1	1.214954999999929
20	54	1	1.005100000000326
20	56	1	1.5583300000002782
20	57	2	1.5841699999996053
20	60	2	0.8231350000000676
20	65	1	0.8058600000003935
20	68	1	0.9476199999999373
20	72	2	1.5392400000000488
20	76	2	1.5745149999997812
20	80	2	0.4529149999998626
20	82	2	0.9071600000002072
20	85	2	0.8782099999998463
20	86	2	1.4214850000003352
20	90	1	0.47977499999979045
20	93	1	1.2747449999997043
20	98	2	1.2223549999998649
20	101	2	0.5064199999996927
20	104	2	1.3036650000003283
20	109	1	1.4564500000001281
20	112	1	1.32599500000017
20	115	1	0.5235650000000023
20	118	2	1.320109999999695
20	120	1	1.291949999999837
21	2	1	0.4469299999982468
21	4	1	0.9096199999985402
21	8	1	0.4594299999989744
21	9	1	0.8112849999997707
21	13	2	0.7658049999990908
21	16	1	0.822585000001709
21	19	1	0.6890300000013667
21	22	2	0.6667699999998149
21	25	1	0.5918050000000221
21	26	1	0.8486749999974563
21	27	1	0.6268849999978556
21	32	1	0.6208650000007765
21	40	1	0.832750000001397
21	44	1	0.6333799999993062
21	46	1	0.6000850000018545
21	48	1	0.6921399999991991
21	51	1	0.6166300000004412
21	53	2	0.6432549999990442
21	54	1	0.8228850000014063
21	56	2	0.8472250000013446
21	57	2	0.6837799999993877
21	60	1	0.5903599999983271
21	65	1	0.49426499999751106
21	68	2	0.7126700000007404
21	72	1	0.5208849999980885
21	76	1	0.8694149999974179
21	80	1	0.7372899999973015
21	82	1	0.7026250000017462
21	85	1	0.5904650000011316
21	86	1	0.49539999999979045
21	90	2	0.6604749999969499
21	93	2	0.599115000000922
21	98	2	0.7186450000008335
21	101	2	0.7643000000025495
21	104	2	0.6182699999989709
21	109	1	0.4588350000013015
21	112	2	0.5506649999988149
21	115	2	0.7808199999999488
21	118	1	0.5257349999992293
21	120	1	0.5867050000015297
22	2	1	0.4654200000222773
22	4	2	0.7668650000123307
22	8	2	0.5147000000579283
22	9	2	0.6398050000425428
22	13	1	0.621445000055246
22	16	2	0.3713500000303611
22	19	1	0.5737599999411032
22	22	1	0.6290349999908358
22	25	1	0.41125499992631376
22	26	2	0.5469300000695512
22	27	2	0.669359999941662
22	32	1	0.8073850000509992
22	40	1	0.968764999997802
22	44	1	0.5181050000246614
22	46	1	0.6654450000496581
22	48	1	0.4709649999858811
22	51	1	0.4539600000716746
22	53	1	0.6342449999647215
22	54	2	0.3740449999459088
22	56	2	0.5816900000208989
22	57	2	0.49095499992836267
22	60	2	0.722940000006929
22	65	2	0.3718850000295788
22	68	2	0.3949449999490753
22	72	2	0.3348249999107793
22	76	2	0.5800100000342354
22	80	1	0.33814500004518777
22	82	2	0.5262150000780821
22	85	1	0.4735899999504909
22	86	1	0.7976999999955297
22	90	2	0.27828000008594245
22	93	2	0.5894199999747798
22	98	1	0.6256699999794364
22	101	2	0.8219050000188872
22	104	2	0.7434349999530241
22	109	2	0.5768349999561906
22	112	1	0.42471000005025417
22	115	1	0.5781200000783429
22	118	2	0.7733549999538809
22	120	1	0.5947849999647588
23	2	1	0.448
23	4	1	0.421
23	8	1	0.458
23	9	2	0.486
23	13	2	0.478
23	16	2	0.34
23	19	2	0.404
23	22	1	0.471
23	25	1	0.453
23	26	1	0.572
23	27	1	0.438
23	32	1	0.691
23	40	2	0.611
23	44	1	0.779
23	46	1	0.37
23	48	1	0.476
23	51	1	0.569
23	53	1	0.416
23	54	2	0.651
23	56	1	0.362
23	57	2	0.531
23	60	1	0.604
23	65	1	0.637
23	68	1	0.805
23	72	2	0.426
23	76	1	0.647
23	80	1	0.412
23	82	1	0.483
23	85	1	0.543
23	86	1	0.506
23	90	1	0.523
23	93	1	0.451
23	98	1	0.471
23	101	1	0.443
23	104	2	0.573
23	109	2	0.577
23	112	1	0.374
23	115	2	0.549
23	118	1	0.601
23	120	1	0.375
24	2	1	0.8729300000704825
24	4	1	0.6518749999813735
24	8	1	0.6832749999593943
24	9	2	0.6665900000371039
24	13	1	0.5073400000110269
24	16	1	0.8310599999967963
24	19	1	0.7371949999360368
24	22	2	0.5679999999701977
24	25	2	0.6151049999753013
24	26	2	0.7434750000247732
24	27	2	0.9318849999690428
24	32	1	0.8079400000860915
24	40	2	0.8345400000689551
24	44	1	0.8629049999872223
24	46	1	0.8211749999318272
24	48	1	0.5087800000328571
24	51	1	0.546485000057146
24	53	1	0.8510649999370798
24	54	1	0.5755200000712648
24	56	1	0.5876749999588355
24	57	1	0.8688250000122935
24	60	1	0.5200900000054389
24	65	1	0.795285000000149
24	68	2	1.0247149999486282
24	72	1	1.003909999970347
24	76	1	0.588164999964647
24	80	2	1.0889700000407174
24	82	1	0.7538450000574812
24	85	1	0.6130300000077114
24	86	1	0.5793849999317899
24	90	1	0.7145199999213219
24	93	2	0.641330000013113
24	98	2	0.9597650000359864
24	101	1	0.5874600000679493
24	104	1	0.7546550000552088
24	109	2	0.718034999910742
24	112	1	0.6886249999515712
24	115	1	0.782645000028424
24	118	1	0.7161850000265986
24	120	2	0.8632150000194088
25	2	1	0.8327300000237301
25	4	1	0.3898200000403449
25	8	1	0.6532900000456721
25	9	2	0.4552749999566004
25	13	1	0.6852850000141189
25	19	1	0.40688999998383224
25	22	1	0.47484500001883134
25	25	1	0.834484999999404
25	26	2	0.6549749999539927
25	27	1	0.8833549999981187
25	32	2	0.674509999982547
25	40	1	0.8521300000138581
25	44	2	0.5315149999805726
25	46	1	0.9288250000099652
25	48	2	0.8994800000218675
25	51	2	1.6286099999560977
25	53	2	0.4210900000180118
25	54	1	0.4391450000111945
25	56	1	0.4588699999731034
25	57	2	0.36705000000074506
25	60	1	0.6957849999889731
25	65	1	0.668779999949038
25	68	1	0.7186799999908544
25	72	1	1.035894999979064
25	76	2	0.4750600000261329
25	80	1	0.7643699999898672
25	82	2	0.7812750000157394
25	86	1	0.6518349999678321
25	90	2	0.6247549999970943
25	93	2	0.6065099999541417
25	98	2	0.7706849999958649
25	101	2	0.8467450000462122
25	104	2	0.6222999999881722
25	109	2	0.841515000036452
25	112	2	0.3883650000207126
25	115	2	0.6752899999846704
25	118	2	0.4740299999830313
25	120	2	0.4671899999957532
26	2	1	0.4280000000144355
26	4	1	0.5315199999604374
26	8	1	0.527280000038445
26	9	1	0.6330150000285357
26	13	1	0.8264600000111386
26	16	1	0.7712199999950826
26	19	1	0.5419649999821559
26	22	1	0.6257350000087172
26	25	1	0.7770100000197999
26	26	1	0.6299100000178441
26	27	1	0.5652700000209734
26	32	1	0.7314999999944121
26	40	1	0.5346950000384822
26	44	1	0.5637449999921955
26	46	1	0.5872499999823049
26	48	1	0.6681500000413507
26	51	1	0.7566099999821745
26	53	1	0.7466849999618717
26	54	1	0.6296800000127405
26	56	1	0.644304999965243
26	57	1	0.5965500000165775
26	60	1	0.5923700000275858
26	65	1	0.6018749999930151
26	68	1	0.5713549999636598
26	72	2	0.7606599999708124
26	76	1	0.6604499999666587
26	80	1	0.6513949999934994
26	82	1	0.9140349999652244
26	85	1	0.6334299999871291
26	86	1	0.6321050000260584
26	90	1	0.8167049999465235
26	93	1	0.7504450000124052
26	98	1	0.6454200000152923
26	101	1	0.729665000049863
26	104	1	0.6077799999620765
26	109	1	0.8489899999694899
26	112	1	0.6569400000153109
26	115	1	0.6932900000247173
26	118	1	0.5226600000169128
26	120	1	0.834789999993518
27	2	1	0.4762950000003912
27	4	1	0.451214999993681
27	8	1	0.4325949999911245
27	9	2	0.736269999993965
27	13	2	0.4588249999942491
27	16	2	0.5660749999951804
27	19	2	0.5656749999907333
27	22	1	0.5477950000058627
27	25	1	0.5693800000008196
27	26	2	0.6959100000094622
27	27	2	0.6699299999891082
27	32	1	0.5677399999985937
27	40	2	0.35914500000944827
27	44	2	0.5012100000021746
27	46	1	0.8706500000116648
27	48	1	0.6094949999969685
27	51	1	0.4421450000081677
27	53	1	0.9181299999909244
27	56	2	0.5871999999944819
27	57	2	0.5333550000068499
27	60	2	0.6213300000090385
27	65	1	0.48542000001179986
27	68	1	0.4884499999898253
27	72	2	0.5714850000076694
27	76	1	0.605199999990873
27	80	1	0.6534150000079535
27	82	2	0.5083700000104727
27	85	1	0.44160000000556465
27	86	1	0.5298400000028778
27	90	1	0.6817050000099698
27	93	2	0.38113999999768566
27	98	1	0.658835000009276
27	109	1	0.4987800000089919
27	112	1	0.7794699999940349
27	115	1	1.2811649999930523
27	118	1	0.5944350000063423
27	120	1	0.4331149999925401
28	2	1	0.5042499999981374
28	4	1	0.6370299999980489
28	8	1	0.52532500000234
28	9	1	1.2126250000001164
28	13	2	0.3260099999970407
28	16	1	1.2364699999998263
28	19	1	1.1511299999983748
28	22	1	0.43659000000116066
28	25	1	0.5198349999991478
28	27	1	1.1305449999999837
28	32	1	0.5252300000029209
28	40	1	0.8437850000009348
28	44	1	1.2071299999988696
28	46	1	1.2524000000012456
28	48	1	1.2425650000004098
28	51	1	1.276399999998801
28	53	1	1.2756650000009686
28	54	1	1.3782250000003842
28	56	1	1.241505000001809
28	57	1	1.3270100000008824
28	60	1	1.441979999999574
28	68	1	1.2837300000027752
28	72	1	1.252635000000766
28	76	1	1.209790000000794
28	80	1	0.6051850000002887
28	82	1	1.2220200000010664
28	85	1	1.2387500000004077
28	86	1	1.2205250000006636
28	90	1	0.8170000000026776
28	93	1	1.293134999999893
28	98	1	1.518194999996922
28	101	1	1.244795000002312
28	104	1	1.2491300000001793
28	109	1	1.2877149999985704
28	112	1	1.2791600000018952
28	115	1	1.2710350000016042
28	118	1	1.62043999999878
29	2	1	0.3679649999830872
29	4	1	0.6937499999767169
29	8	1	0.5949949999339879
29	9	1	0.6101950000738725
29	13	2	0.5312000000849366
29	16	2	0.7459850000450388
29	19	1	0.4623450000071898
29	22	1	0.6818050000583753
29	25	1	0.4641299999784678
29	26	1	0.569495000061579
29	27	1	0.5621800000080839
29	32	1	0.6789900000439957
29	40	1	0.6123549999902025
29	44	2	0.7548149999929592
29	46	2	0.7661749999970198
29	48	2	0.6153649999760091
29	51	2	0.49529999995138496
29	53	2	0.8134200000204146
29	54	1	0.802254999987781
29	56	1	0.48034499993082136
29	57	1	0.6420299999881536
29	60	1	0.5168200000189245
29	65	1	0.513329999987036
29	68	1	0.3475449999095872
29	72	2	0.6251649999758229
29	80	1	0.5304100000066683
29	82	2	0.7450649999082088
29	85	2	0.44774500001221895
29	86	2	0.5847400000784546
29	90	1	0.9424149999395012
29	93	2	0.5870450000511482
29	98	2	0.7939450000412762
29	101	1	0.3910450000548735
29	104	1	0.7928450000472367
29	109	1	0.7398350000148639
29	112	2	0.7708599999314174
29	115	1	0.6053049999754876
29	118	1	0.8336450000060722
29	120	2	0.5792850001016632
30	2	1	1.2535800000000454
30	4	1	1.2371950000001526
30	8	1	0.565904999999926
30	9	2	1.1390099999998784
30	13	2	0.9494050000003045
30	16	1	0.4390549999998184
30	19	1	1.0232099999998172
30	22	1	0.513925000000192
30	25	1	0.5111799999999639
30	26	1	0.6695649999997113
30	27	1	0.4440299999996496
30	32	1	0.4340499999998429
30	40	1	1.217090000000113
30	44	1	0.5105400000002118
30	46	2	0.8642049999998708
30	48	1	0.7623800000001211
30	51	1	0.8908799999999173
30	53	1	0.5829799999996903
30	54	1	0.4671200000002573
30	56	1	0.4945999999999767
30	57	1	0.6328849999999802
30	60	1	0.38630999999988125
30	65	1	0.5143600000001607
30	68	1	0.5121749999998719
30	72	2	0.4795449999996927
30	76	1	0.7438150000002351
30	80	1	0.611205000000191
30	82	2	0.4285
30	86	1	0.5386550000002608
30	90	1	0.6533799999997718
30	93	2	0.5198399999999674
30	98	2	0.7361249999999417
30	101	1	1.186084999999788
30	109	2	0.5396649999998044
30	112	1	0.4522950000000419
30	115	1	0.6488599999998114
30	118	1	0.5565799999999581
30	120	1	0.6140250000003143
31	2	2	0.7126600000774488
31	4	1	0.34843500005081296
31	9	2	0.6529300000984222
31	13	1	0.4858450000174344
31	16	1	0.8998199999332428
31	19	1	0.41697999997995794
31	22	2	0.47840999998152256
31	25	1	0.3302350000012666
31	26	1	0.8607049999991432
31	27	1	0.40609499998390675
31	32	1	0.4419149999739602
31	40	1	0.3438449999084696
31	44	2	0.5429849999491125
31	46	1	0.6128749999916181
31	48	1	0.8657700000330806
31	51	2	0.574214999913238
31	53	1	0.6837550000054762
31	54	1	0.549485000083223
31	56	1	0.5114799999864772
31	57	1	0.5644099999917671
31	60	1	0.4990699999034405
31	65	1	0.6673449999652803
31	68	1	0.7047699999529868
31	72	2	0.4338149999966845
31	76	1	0.6124350000172853
31	80	1	0.8478499999037012
31	82	2	0.6362649999791756
31	85	1	0.463410000083968
31	86	1	0.5693299999693409
31	90	1	1.0179849999258297
31	93	2	0.4905950000975281
31	98	1	0.5521100000478327
31	101	1	0.5023199999704957
31	104	1	0.5946350001031533
31	109	1	0.6127450000494719
31	112	2	0.6499949999852106
31	115	1	0.4701499999500811
31	118	1	0.6617850000038743
31	120	1	0.6131400000303984
32	2	1	0.5069999999832362
32	4	1	0.828999999910593
32	8	1	0.9059999999590218
32	9	1	0.9390000000130384
32	13	2	0.96100000012666
32	16	2	1.0719999999273568
32	19	2	0.6839999998919666
32	22	1	0.7739999999757856
32	25	1	0.8070000000298023
32	26	1	1.2209999999031425
32	27	1	0.8270000000484288
32	32	1	0.6670000001322478
32	40	1	0.9130000001750886
32	44	1	0.6600000001490116
32	46	1	0.7029999999795109
32	48	2	0.8739999998360872
32	51	1	0.6129999998956919
32	53	2	0.238999999826774
32	54	1	0.5320000001229346
32	56	1	0.845000000204891
32	57	1	0.9349999998230488
32	60	2	0.7830000000540167
32	65	1	0.6650000000372529
32	68	1	0.6410000000614673
32	72	2	0.75
32	76	1	0.7470000002067536
32	80	1	0.9450000000651926
32	82	2	0.927000000141561
32	85	1	0.8050000001676381
32	86	1	0.8879999998025596
32	90	1	0.8160000001080334
32	93	1	0.9150000000372528
32	98	1	0.8279999999795109
32	101	2	0.7239999999292195
32	104	2	0.5810000000055879
32	109	1	0.9340000001247972
32	112	1	0.7430000000167638
32	115	2	0.8049999999348074
32	118	1	0.7239999999292195
32	120	2	0.5579999999608845
33	2	1	0.3536000000021886
33	4	1	0.41829499999585096
33	8	1	0.5715849999978673
33	9	1	1.0934099999940372
33	13	1	0.5507550000038464
33	16	1	0.4818750000049477
33	19	1	0.4153699999951641
33	22	2	0.4673750000001746
33	25	1	0.3718399999997928
33	26	1	0.6046149999965564
33	27	1	0.6955949999974109
33	32	1	0.5587400000003981
33	40	1	0.8751699999993434
33	44	2	0.42230999999446794
33	46	2	0.7155750000019907
33	48	2	0.8578349999952479
33	51	2	0.5378449999989243
33	53	1	0.8626749999966705
33	54	1	0.6419600000008359
33	56	1	0.7718800000002375
33	57	1	0.8344649999999092
33	60	1	0.6293950000035693
33	65	1	0.6618850000013481
33	68	1	0.9439350000029664
33	72	2	0.5215050000042538
33	76	1	0.7375350000002072
33	80	2	0.5307350000002771
33	82	1	0.6467149999953108
33	85	2	0.6810499999992317
33	86	2	0.80702499999461
33	90	1	0.6870150000031572
33	93	1	0.739385000000766
33	98	1	0.5621850000025006
33	101	1	0.7108250000019325
33	104	1	0.7773700000034296
33	109	2	0.6768350000056671
33	112	1	0.676644999999553
33	115	2	0.8547699999980978
33	118	1	0.36607999999978347
33	120	2	0.7362599999978556
34	2	1	0.425545000000071
34	4	1	0.3844500000004627
34	8	1	0.5984250000001339
34	9	1	1.2186650000003283
34	13	2	0.91791000000012
34	16	1	0.5061300000006741
34	19	1	0.5381949999991921
34	22	1	0.538190000000206
34	25	2	0.4716500000004307
34	26	2	0.6218699999999371
34	27	1	0.700394999999844
34	32	2	0.8459700000002922
34	40	1	0.5468049999999348
34	44	2	0.7878350000000791
34	46	1	1.0617700000002517
34	48	1	0.6223250000002736
34	51	1	0.5103399999997927
34	53	1	0.3426200000003446
34	54	1	0.33379500000047846
34	56	1	0.5751199999995006
34	57	1	0.6155799999996961
34	60	1	0.4841850000002596
34	65	1	0.6003650000002235
34	68	1	0.46263000000000465
34	72	2	0.4596099999998696
34	76	1	0.35172499999951107
34	80	1	0.37686000000027703
34	82	1	0.5216049999999232
34	85	1	0.34922000000008846
34	86	1	0.3440499999996973
34	90	1	0.5691049999996322
34	93	1	0.5559199999997508
34	98	1	0.32596000000013736
34	101	1	0.47079500000015834
34	104	1	0.32149000000022354
34	109	1	0.1345700000001816
34	112	1	0.4901799999997602
34	115	2	0.6867000000002444
34	118	1	0.4066350000003003
34	120	1	0.584125000000291
35	2	1	0.49260500000673346
35	4	2	0.5146049999893876
35	8	2	0.5620000000053551
35	9	1	0.5776699999987613
35	13	2	0.5338300000003073
35	16	2	0.5264349999924889
35	19	1	0.9718299999949522
35	22	2	0.4181949999911012
35	25	1	0.8910499999910826
35	26	1	0.5860949999914737
35	27	1	0.5624399999942398
35	32	2	0.6236599999974715
35	40	1	0.9673099999927216
35	44	1	0.8941349999950035
35	46	1	0.6902049999916926
35	48	1	0.4324300000007497
35	51	2	0.6398150000022724
35	53	1	0.6289749999996275
35	54	1	0.5546749999921303
35	56	1	0.49138500000117347
35	57	1	0.5734450000018114
35	60	1	0.6210699999937788
35	65	1	0.6300000000046566
35	68	2	0.6157850000017788
35	72	2	0.5849599999928614
35	76	1	0.8556700000044657
35	80	2	0.5624850000021979
35	82	1	0.5439000000042142
35	85	2	0.8207449999899836
35	86	2	0.7555900000006659
35	90	1	0.5628250000008848
35	93	1	0.9151399999973364
35	98	2	0.67932500000461
35	101	2	0.9507900000025984
35	104	2	0.6813649999967311
35	109	2	0.5395649999991292
35	112	2	0.5543350000079954
35	115	1	0.8209899999928894
35	118	1	0.6270700000022771
35	120	1	0.7265200000110781
36	2	1	1.3104100000000471
36	4	1	1.3422550000000193
36	8	1	1.3601650000000518
36	9	1	1.2260649999999438
36	13	2	1.2575249999999796
36	16	1	1.251200000000157
36	19	1	1.2531649999998336
36	22	1	1.302975000000064
36	25	1	1.326344999999943
36	26	1	1.2741550000000859
36	27	1	1.3526699999999836
36	32	1	1.2975799999999
36	40	1	1.0790349999999744
36	44	1	1.2489950000001409
36	46	1	1.215619999999937
36	48	1	1.3252500000000873
36	51	2	1.228509999999922
36	53	1	1.3905549999999347
36	54	1	1.392164999999979
36	56	1	1.355399999999907
36	57	1	1.2465400000000957
36	60	1	1.4738400000000837
36	65	1	1.488940000000177
36	68	1	1.3596600000000325
36	72	1	1.264380000000121
36	76	1	1.3126399999998974
36	80	1	1.3453850000001255
36	82	1	1.3646799999998767
36	85	1	1.447814999999944
36	86	1	1.2262450000001117
36	90	1	1.2275850000000792
36	93	1	1.321960000000021
36	98	1	1.2644200000002164
36	101	1	1.2368749999998254
36	104	1	1.2215150000001886
36	112	1	1.4046049999999233
36	118	1	1.2935350000000325
36	120	1	1.0759949999999372
37	2	1	0.7478849999997765
37	4	1	0.4200000000000728
37	8	2	0.5305350000003382
37	9	2	0.4992600000000384
37	16	1	0.3898899999999121
37	19	1	0.579414999999688
37	22	1	0.5337500000000582
37	25	1	0.39741000000003257
37	26	1	0.6778249999997497
37	27	1	0.5160599999999395
37	32	1	0.5341200000002573
37	40	2	0.44693499999993946
37	44	2	0.4622949999993725
37	46	1	0.40173000000047615
37	48	1	0.3238950000004552
37	51	1	0.4874799999997777
37	53	1	0.5079649999997928
37	54	1	0.40270500000042375
37	56	1	0.4788099999996193
37	57	2	0.7163800000007614
37	60	2	0.45121999999991386
37	65	1	0.4257999999999301
37	68	1	0.45356999999965775
37	72	1	0.520300000000163
37	76	1	0.4723199999998323
37	80	1	0.452164999999688
37	82	1	0.5508149999996531
37	85	1	0.5454349999999977
37	86	1	0.43467500000039583
37	90	1	0.3794649999999674
37	93	1	0.5356300000002957
37	98	1	0.5590399999991641
37	101	1	0.6104449999993667
37	104	1	0.5274099999996833
37	109	2	0.46347500000050057
37	112	1	0.4881649999997462
37	115	1	0.44492999999970195
37	118	1	0.5108749999999418
37	120	1	0.42531000000052155
38	2	2	0.7300000000000145
38	4	1	0.484
38	8	1	0.661
38	9	1	0.606
38	13	1	0.62
38	16	1	0.681
38	19	1	0.511
38	22	1	0.728
38	25	1	0.516
38	26	1	0.495
38	27	1	0.53
38	32	1	0.334
38	40	2	0.418
38	44	1	0.376
38	46	2	0.445
38	48	1	0.485
38	51	1	0.532
38	53	1	0.444
38	54	1	0.413
38	56	1	0.645
38	57	1	0.6089999999999709
38	60	2	0.5379999999999417
38	65	1	0.4269999999999418
38	68	1	0.496
38	72	2	0.541
38	76	1	0.477
38	80	1	0.6269999999999418
38	82	1	0.493
38	85	1	0.435
38	86	2	0.5930000000000583
38	90	2	0.462
38	93	1	0.445
38	98	2	0.649
38	101	2	0.772
38	104	1	0.4049999999999418
38	109	2	0.567
38	112	2	0.573
38	115	1	0.626
38	118	1	0.564
38	120	2	0.635
39	4	2	1.523689999943599
39	8	2	0.9293049999978392
39	13	2	0.2068250000011176
39	16	2	1.2620800000149757
39	19	2	1.2580350001808256
39	22	2	0.3395399998407811
39	25	2	0.327385000186041
39	26	2	0.7562400000169873
39	27	2	1.1874050002079457
39	32	2	0.6283450000919402
39	40	1	0.252779999980703
39	46	1	1.3447000000160187
39	48	1	0.8180050000082701
39	51	1	1.4047399999108166
39	53	1	0.5802550001535565
39	54	1	1.4173950001131743
39	56	1	1.5056600000243634
39	57	1	0.24240500014275312
39	60	1	1.379200000083074
39	65	1	1.4102950000669807
39	68	1	1.5014299999456853
39	76	1	1.7165449999738485
39	80	1	0.4571750001050532
39	86	1	1.1845150000881404
39	90	1	1.007260000100359
39	93	1	1.2337249999400228
39	98	1	1.264204999897629
39	101	1	1.0888450001366436
39	104	1	1.2992899999953806
39	109	1	1.3668449998367578
39	112	1	0.2929299999959767
39	115	1	0.33156499988399446
39	118	1	0.6611399999819696
39	120	1	0.35232000006362796
40	2	1	0.5417500000039581
40	4	1	0.33446000001276843
40	8	1	0.3290450000058627
40	9	2	0.5545100000017555
40	13	2	0.9117700000060722
40	16	2	0.4447349999973085
40	19	1	0.4601600000023609
40	22	1	0.39843000000109896
40	25	2	0.5011599999997998
40	26	2	0.49386499999673106
40	27	2	0.6653149999910966
40	32	1	0.4149100000067847
40	40	1	0.6122900000045775
40	44	1	0.513265000001411
40	46	1	0.3717650000035064
40	48	1	0.7743649999902118
40	51	1	0.4792299999971874
40	53	1	0.40516999999817926
40	54	1	0.3780899999983376
40	56	2	0.7019549999968149
40	57	2	0.5167050000018207
40	60	2	0.4299350000073901
40	65	1	0.49517999999807216
40	68	1	0.618560000002617
40	72	1	0.35353500000201166
40	76	2	0.6458549999952083
40	80	1	0.48382500000298023
40	82	2	0.591084999992745
40	85	1	0.719889999993029
40	86	2	0.4866349999938393
40	90	2	0.5289349999948172
40	93	1	0.4961449999973411
40	98	1	0.30011999999987893
40	101	1	0.34123999999428634
40	104	1	0.36662000000069384
40	109	2	0.473375000001397
40	112	1	0.6265149999962887
40	115	2	0.6236650000064401
40	118	2	0.5883800000010524
40	120	1	0.698660000009113
41	2	1	0.5736899999901652
41	4	1	0.3058500001206994
41	8	1	0.3367349999025464
41	9	2	0.4225300000980496
41	13	2	0.5407849997282028
41	16	2	0.4335000002756715
41	19	2	0.5361000001430511
41	22	1	0.4519850006327033
41	25	2	0.6329250000417233
41	26	1	0.6644350001588464
41	27	1	0.6943650003522635
41	32	2	0.5419749999418855
41	40	1	0.4230850003659725
41	44	1	0.8041349994018674
41	46	1	0.35754000023007393
41	48	2	0.4118749992921949
41	51	1	0.7244600001722574
41	53	1	0.44704500027000904
41	54	1	0.38958000019192696
41	56	1	0.5800999999046326
41	57	1	0.7959900004789233
41	60	2	0.9487749999389052
41	65	2	0.617705000564456
41	68	1	0.3811699999496341
41	72	2	0.5735849998891354
41	76	2	0.6047600004822016
41	80	1	0.5766350002959371
41	82	2	0.5931500000879169
41	85	2	0.553574999794364
41	86	1	0.6704949997365475
41	90	2	0.7548049995675683
41	93	2	0.7926000002771616
41	98	2	0.939524999819696
41	101	2	0.7566799996420741
41	109	1	0.7695749998092651
41	112	2	1.6339900000020862
41	115	2	0.6685049999505281
41	118	2	0.6703050006181002
41	120	1	0.6487050000578165
42	2	2	1.2737700000870973
42	4	1	1.2727449999656528
42	8	2	1.2918700000736862
42	9	2	1.2606550001073629
42	13	1	1.345299999928102
42	16	1	1.2613450000062585
42	19	1	1.2542250000406057
42	22	1	1.2577249999158084
42	25	1	1.108490000013262
42	26	2	1.2451599999330938
42	27	2	1.2776049999520185
42	32	2	1.2344849999062717
42	40	2	1.2118150000460446
42	44	1	1.2135650001000613
42	46	2	1.2499649999663234
42	48	1	1.2313999999314549
42	51	2	1.3063950000796467
42	53	1	1.2357149999588728
42	54	2	1.2663099998608232
42	56	1	1.1288949998561293
42	57	2	1.267324999906123
42	60	2	1.215190000133589
42	65	2	1.2658949999604374
42	68	2	1.2324850000441074
42	72	2	1.3109649999532849
42	76	2	1.251179999904707
42	80	2	1.0741700001526624
42	82	1	1.0888050000648946
42	85	2	0.9337800000794232
42	86	2	1.2680849998723716
42	90	2	1.1690099998377264
42	93	1	1.2451100000180304
42	101	2	1.3440499999560416
42	104	2	1.293885000050068
42	109	1	1.217329999897629
42	112	2	1.2585100000724196
42	115	1	1.1466299998573959
42	118	1	1.2064350000582635
42	120	2	1.3526449999772012
43	2	1	1.634
43	4	1	1.253
43	8	1	1.203
43	9	1	1.259
43	13	1	1.215
43	16	1	1.233
43	19	1	1.176
43	22	1	1.164
43	25	1	1.149
43	26	2	1.274
43	27	1	1.167
43	32	1	1.134
43	40	1	1.157
43	44	1	1.198
43	46	1	1.062
43	48	1	1.229
43	51	1	1.21
43	53	2	1.122
43	54	1	1.25
43	56	1	1.085
43	57	1	1.161
43	60	1	1.012
43	65	1	1.155
43	68	1	1.161
43	76	2	1.304
43	80	2	1.141
43	82	2	1.061
43	85	2	1.018
43	86	1	1.062
43	90	2	1.154
43	93	2	1.163
43	98	2	1.331
43	101	2	1.08
43	104	2	1.175
43	109	2	1.166
43	112	2	1.118
43	115	2	1.161
43	118	2	1.188
43	120	2	1.179
44	2	2	0.6971750000084285
44	4	2	0.5703499999945052
44	8	2	0.5142350000096485
44	9	2	0.6159649999899557
44	13	2	0.5214699999924051
44	16	2	0.5155349999986356
44	19	2	0.49238500000501517
44	22	2	0.47490499999548774
44	25	2	0.7208749999990687
44	26	2	0.5832550000050105
44	27	2	0.5343749999883585
44	32	2	0.463305000012042
44	40	2	0.875914999996894
44	44	2	0.48001499999372754
44	46	2	0.6735250000056112
44	48	2	0.5230100000044331
44	51	2	0.4672649999993155
44	53	2	0.5289400000037858
44	54	2	0.4697250000026542
44	56	2	0.5751499999896623
44	57	2	0.43269499999587424
44	60	2	0.4869499999913387
44	65	2	0.5589900000049965
44	68	2	0.6767749999999069
44	72	2	0.6783449999929871
44	76	2	1.1640199999965262
44	80	2	1.0125000000116418
44	82	1	1.0624249999964377
44	85	1	0.6211550000007264
44	86	1	0.5356750000064494
44	90	2	0.5541399999929126
44	93	2	0.5677949999953853
44	98	2	1.009105000004638
44	101	2	0.5496899999998277
44	104	1	0.556060000002617
44	109	2	0.9224600000015926
44	112	2	0.8001450000010664
44	115	2	0.8601349999953527
44	118	2	0.9784999999974388
44	120	2	0.9997500000026776
45	2	1	0.5761249999050051
45	4	1	0.7421750000212342
45	8	2	0.5341100001242012
45	9	1	0.5060149999335408
45	13	2	0.7293200001586229
45	16	2	0.8553800000809133
45	19	1	0.5459650000557303
45	22	1	0.7749900000635535
45	25	1	1.1812449998687953
45	26	2	0.65417500003241
45	27	1	0.7923399999272078
45	32	1	0.5918300000485033
45	40	1	0.6052800000179559
45	44	1	0.6225550000090152
45	46	1	0.6850449999328703
45	48	2	0.9316449998877944
45	51	2	0.7695550001226366
45	53	1	0.5724049999844283
45	54	1	0.5768599999137223
45	56	2	0.7931050001643598
45	57	1	0.6946250000037253
45	60	1	0.6598950000479817
45	65	1	0.6361350000370294
45	68	1	0.8299499999266118
45	72	2	0.48164999997243285
45	76	1	0.5485900000203401
45	80	2	0.5181299999821931
45	82	1	0.8620450000744313
45	85	1	0.7458249998744577
45	86	2	0.5265850001014769
45	90	1	0.4645899999886751
45	93	1	0.8312550000846386
45	98	2	0.5404000000562519
45	101	1	0.7072200002148747
45	104	1	0.4404549999162555
45	109	2	0.7211949999909848
45	112	2	0.8316049999557436
45	115	1	0.42008999991230667
45	118	2	0.44910000008530915
45	120	2	1.1385649999137968
46	2	1	1.2481900000000168
46	4	1	1.1660400000000664
46	8	1	1.2625749999999534
46	9	2	1.062685000000085
46	13	2	1.2656999999999243
46	16	2	1.362084999999992
46	19	1	1.2711899999999439
46	22	1	1.2928299999998707
46	25	1	0.974790000000008
46	26	1	1.1364949999999663
46	27	1	1.2288149999999438
46	32	1	1.2633349999998755
46	40	1	1.27267499999993
46	44	1	1.274094999999972
46	46	1	1.1599499999999823
46	48	1	1.232655000000028
46	51	1	1.273720000000147
46	53	1	1.1245049999999464
46	54	1	1.243015000000014
46	56	1	1.1794799999999814
46	57	1	1.311259999999951
46	60	1	1.310494999999995
46	65	1	1.2482999999999302
46	68	1	1.2666000000001512
46	72	2	1.174425000000163
46	76	1	1.289064999999944
46	80	1	1.2878350000001373
46	82	1	1.1663999999997905
46	85	1	1.320960000000021
46	86	1	1.2619400000001186
46	90	1	1.212185000000056
46	93	1	1.2159450000001235
46	98	1	1.260189999999944
46	101	1	0.7181349999998929
46	104	2	1.1379899999999326
46	109	2	1.2107699999999604
46	112	1	1.2602050000000162
46	115	1	0.6890849999999628
46	118	1	0.7108150000001769
46	120	2	1.296475000000093
47	2	1	0.452724999981001
47	4	1	0.4804450001101941
47	8	1	0.42946500005200505
47	9	1	0.4194199999328702
47	13	1	0.980835000053048
47	32	2	0.5086000000592321
47	57	1	1.1183650000020862
47	65	1	0.34192000003531575
47	68	1	0.28255999996326864
47	72	1	0.41595999989658594
47	80	1	0.4058999998960644
47	82	1	0.42575499997474253
47	85	1	0.346214999910444
47	86	1	0.5092700000386685
47	90	2	0.4636000001337379
47	93	1	0.5301000000908971
47	98	1	0.31340999994426966
47	101	1	0.39376999996602535
47	104	2	0.4911400000564754
47	109	1	0.38114000018686056
47	112	2	0.32499500014819205
47	115	1	0.6399799999780953
47	118	2	0.44715999998152256
47	120	1	0.6324450001120567
48	2	2	1.3616599999950267
48	4	1	1.2237249999889173
48	8	1	1.2923900000168942
48	9	2	1.3874749999959022
48	13	1	1.4263249999494292
48	16	1	1.2294850000180304
48	19	1	1.0129750000196507
48	22	2	1.2035299999988638
48	25	1	1.1928000000189058
48	26	1	1.2079999999841675
48	27	1	1.281829999992624
48	32	1	1.1492699999944307
48	40	2	1.2199350000009872
48	44	1	1.2897999999695458
48	46	2	0.8249749999959022
48	48	1	0.9314599999925122
48	51	1	1.2176999999792315
48	53	2	1.2645499999634922
48	54	2	1.2804699999978766
48	56	2	1.5135950000258165
48	60	1	1.2374150000396185
48	65	1	1.2752650000038557
48	68	2	1.2159499999834225
48	72	1	1.2181750000454483
48	76	1	1.2102849999791945
48	80	1	1.2912350000115111
48	82	1	1.2015700000338256
48	85	1	0.45139499998185784
48	86	1	0.9646850000135601
48	90	1	0.5128200000035577
48	93	2	1.340210000053048
48	98	2	1.399939999973867
48	101	2	1.1893999999738298
48	104	1	1.0656249999883585
48	109	1	1.1148950000060722
48	112	2	1.2138449999620209
48	115	1	1.2630900000222027
48	118	2	1.313045000017155
48	120	2	1.3840049999998882
49	2	1	0.5448350000660866
49	4	1	0.4348499999614433
49	8	1	0.45946000004187226
49	9	1	0.6722249999875203
49	13	1	0.4696049999911338
49	16	1	0.8651250000111759
49	19	1	0.543695000000298
49	22	1	0.7470699999248609
49	25	1	0.6330950000556186
49	26	2	0.8133299999171868
49	27	2	0.7335500000044703
49	32	2	0.8384099999675527
49	40	1	0.8672700000461191
49	44	1	0.7219250000780448
49	46	1	0.9166800000239164
49	48	1	0.73571000003721565
49	51	1	0.7899900000775233
49	53	2	0.978495000046678
49	54	2	0.5400000000372529
49	56	1	0.7297900000121444
49	57	1	0.7814149999758229
49	60	1	0.584984999964945
49	65	2	0.8020650000544265
49	68	2	0.7425949999596924
49	72	2	0.7640899999532849
49	76	1	1.1212600000435486
49	80	1	0.7546050000237301
49	82	2	0.6008849999634549
49	85	2	0.6350749999983236
49	86	2	0.7507450000848621
49	90	1	0.61318999994546175
49	93	2	0.7262900000205263
49	98	1	0.82794500002637506
49	101	1	1.7145799999125302
49	104	1	0.6935500000836328
49	109	2	0.9192850000690668
49	112	1	0.6748900000238791
49	115	2	0.6111999999266118
49	118	2	0.7399749999167398
49	120	2	0.5887099999235943
50	2	1	0.593
50	4	1	0.472
50	8	1	0.988
50	9	2	0.872
50	13	1	0.821
50	16	2	0.84
50	19	1	0.537
50	22	1	1.03
50	25	1	0.78
50	26	2	0.802
50	27	1	0.889
50	32	1	0.826
50	40	1	0.822
50	44	2	0.844
50	46	2	0.98
50	48	1	0.74
50	51	1	0.691
50	53	1	0.678
50	54	1	0.754
50	56	1	0.681
50	57	1	0.714
50	60	1	0.706
50	65	1	0.71
50	68	1	0.713
50	72	1	0.728
50	76	2	0.748
50	80	2	0.688
50	82	2	0.783
50	85	1	0.914
50	86	1	0.735
50	90	2	0.944
50	93	2	0.791
50	98	1	0.962
50	101	1	0.937
50	104	1	0.896
50	109	1	0.663
50	112	2	0.833
50	115	2	0.724
50	118	1	0.805
50	120	2	0.884
51	2	1	1.2946450000163168
51	4	1	1.2468349999981
51	8	1	1.235979999997653
51	9	1	1.2704499999526888
51	13	1	1.312610000022687
51	16	1	1.252500000060536
51	19	2	1.397884999983944
51	22	1	1.2586150000570342
51	25	1	1.225209999945946
51	26	1	1.235095000010915
51	27	1	1.2909800000488758
51	32	2	1.3296750000445172
51	40	1	1.2895600000629202
51	44	1	1.2438250000122937
51	46	1	1.2861399999819696
51	48	1	1.272400000016205
51	51	1	1.3068600000115111
51	53	1	1.0140799999935552
51	54	1	1.526979999965988
51	56	1	0.7449400000041351
51	57	1	0.41953499999362975
51	60	1	1.3915300000226125
51	65	1	1.2523400000063702
51	68	1	1.001079999958165
51	72	1	1.2929999999469146
51	76	1	1.2740950000006706
51	80	1	1.1436899999389425
51	82	1	1.2996249999850988
51	85	1	0.8838100000284612
51	86	1	0.3900250000879169
51	90	1	0.5668849999783561
51	93	1	0.7796849999576807
51	98	1	1.3687499999068675
51	101	1	1.315085000009276
51	104	1	1.199070000089705
51	109	1	1.210470000049099
51	112	1	1.304329999955371
51	118	1	1.2891850000014529
51	120	1	1.0059500000206754
52	2	1	0.7547750000001106
52	4	1	0.5301400000000868
52	8	1	0.48471000000016645
52	9	2	1.126569999999905
52	13	2	0.5472750000001252
52	16	1	0.9175649999999588
52	19	1	0.7752849999999307
52	22	1	0.7358150000000023
52	25	1	0.4979200000000128
52	26	2	0.6769200000001292
52	27	2	0.9126499999999942
52	32	1	0.8554449999999196
52	40	1	0.8373449999999139
52	44	1	0.7466399999998393
52	46	1	0.8792849999999743
52	48	1	0.8294049999999407
52	51	1	0.9958400000000256
52	53	2	1.0262799999998242
52	54	2	0.8240650000000315
52	56	1	0.7824950000001699
52	57	1	0.9232600000000092
52	60	1	0.5838350000001373
52	65	1	0.7249950000000245
52	68	1	0.9425000000001165
52	72	2	0.476445000000007
52	76	1	0.8251450000000187
52	80	1	0.928219999999972
52	82	2	0.5057700000002514
52	85	2	0.9911699999999836
52	86	1	1.1661049999997484
52	90	1	0.6946049999998649
52	93	2	0.5601550000001444
52	98	1	0.8136750000001047
52	101	1	0.588240000000049
52	104	1	0.5307500000001164
52	109	2	0.5128700000000536
52	112	1	0.5973549999999231
52	115	2	0.7289949999999371
52	118	2	0.5236849999998813
52	120	1	0.6258749999999418
53	2	1	0.45
53	4	1	0.509
53	8	1	0.507
53	9	1	0.43
53	13	1	0.559
53	16	2	0.532
53	19	1	0.709
53	22	1	0.553
53	26	2	0.669
53	27	1	0.865
53	32	1	0.792
53	40	1	0.674
53	44	1	0.762
53	46	1	0.346
53	48	1	0.568
53	51	1	0.506
53	53	1	0.721
53	54	2	0.679
53	56	1	0.427
53	57	1	0.998
53	60	1	0.816
53	68	1	1.558
53	72	1	1.09
53	76	1	1.164
53	80	1	0.614
53	82	2	0.6
53	85	2	0.603
53	86	1	0.638
53	90	1	0.651
53	93	1	0.527
53	98	1	0.401
53	101	1	0.64
53	104	1	1.228
53	109	1	0.994
53	112	1	0.652
53	115	1	0.603
53	118	1	0.706
53	120	1	0.658
54	2	1	0.8516550000058487
54	4	1	0.5438699999940582
54	8	1	0.6354349999965052
54	9	2	0.5221100000053411
54	13	1	0.7726650000040536
54	16	1	0.4925149999980931
54	19	1	0.35980999999446794
54	22	1	0.6668900000004214
54	25	2	0.7401800000006915
54	26	2	0.5342349999991711
54	27	1	0.5719549999994342
54	32	2	0.7435800000021118
54	40	1	0.5096099999936996
54	44	1	0.4922950000036508
54	46	1	0.6271349999951781
54	48	1	1.1151000000027125
54	51	1	0.6945399999967776
54	53	2	0.7586900000023888
54	54	1	0.5005350000064938
54	56	2	0.7280600000012782
54	57	2	0.7950000000055297
54	60	1	0.6956349999964004
54	65	2	0.6407400000025518
54	68	1	0.577884999998787
54	72	1	0.6940699999977369
54	76	1	0.7273449999993318
54	80	1	0.6558549999972456
54	82	1	0.8222850000020117
54	85	1	0.4103499999982887
54	86	1	0.46696499999961816
54	90	1	0.4745100000000093
54	93	1	0.564619999997376
54	98	1	0.5497400000022026
54	101	1	0.441739999994752
54	104	1	0.3571349999983795
54	109	1	0.33813499999814667
54	112	1	0.756375000004482
54	115	1	0.4279150000002119
54	118	1	0.5083250000025146
54	120	2	0.6891800000012154
55	2	2	0.6233449999708682
55	4	1	0.6145050000050105
55	8	1	0.6379149999702349
55	9	2	0.9166049999766984
55	13	1	0.813785000005737
55	16	2	0.5796749999863096
55	19	1	0.6089449999853969
55	22	1	0.5925299999653362
55	25	1	0.49277000001166016
55	26	2	0.7506549999816343
55	27	1	0.6502450000261888
55	32	2	0.8118649999960326
55	40	1	0.77754499996081
55	44	2	0.9358599999686704
55	46	2	0.735530000005383
55	48	1	0.6695850000251085
55	51	1	0.5824199999915436
55	53	2	0.79191000002902
55	54	1	0.7060700000147335
55	56	2	0.7221150000113994
55	57	1	0.652620000008028
55	60	2	0.6200749999843538
55	65	2	0.8574449999723583
55	68	1	0.7247750000096858
55	72	1	0.6835250000003725
55	76	2	0.630269999965094
55	80	1	0.7376400000066496
55	82	2	0.6964300000108778
55	85	1	0.4443750000209547
55	86	1	0.8325900000054389
55	90	1	0.6484150000032969
55	93	1	0.6290100000333041
55	98	1	0.5734749999828637
55	101	2	0.5984849999658763
55	104	2	0.8632199999992736
55	109	2	0.8782549999887124
55	112	1	0.6834350000135601
55	115	1	0.6802449999959208
55	118	2	0.6344249999965541
55	120	2	0.8350850000279024
56	2	1	1.3519000000000232
56	4	1	1.3157000000000116
56	8	1	1.2131999999999534
56	9	1	1.0232000000000117
56	13	2	1.281
56	16	1	1.1967000000000116
56	19	1	1.1955999999999767
56	22	1	1.3060999999999767
56	25	1	1.2159000000000233
56	26	2	1.1742000000000117
56	27	1	1.2077999999999884
56	32	1	1.3475
56	40	1	1.3022999999999885
56	44	1	1.2599000000000233
56	46	1	1.1967000000000116
56	48	1	1.0397000000000116
56	51	1	1.2345
56	53	1	1.2717999999999883
56	54	1	1.1265
56	56	1	1.239600000000035
56	57	1	1.181
56	60	2	1.1317000000000117
56	65	1	1.4637000000000115
56	68	1	1.0543999999999651
56	72	1	1.2210999999999768
56	76	1	1.212399999999965
56	80	1	1.2475
56	82	2	0.947
56	85	1	1.6214000000000233
56	86	1	1.2391999999999534
56	90	1	0.5656999999999535
56	93	1	0.947
56	98	1	1.1945
56	101	1	1.2005
56	104	1	1.1128000000000466
56	109	1	1.2815
56	112	1	1.2095999999999767
56	115	2	0.20240000000002328
56	118	2	1.3295
56	120	1	1.43
57	2	1	0.27063500019721687
57	4	1	0.3208700001705438
57	8	1	0.34513500006869435
57	9	2	0.6102549999486655
57	13	1	0.38052499992772937
57	16	1	0.5520699999760836
57	19	1	0.3930699999909848
57	22	1	0.5427400001790375
57	25	1	0.5324200000613928
57	26	1	0.5352950000669807
57	27	2	0.36982999998144805
57	32	2	0.5171500002034009
57	40	2	0.3662400001194328
57	44	1	0.5521850001532584
57	46	1	0.7949550000485033
57	48	2	0.6175550001207739
57	51	1	0.7298100001644343
57	53	1	0.5615249997936189
57	54	1	0.549424999859184
57	56	2	0.5829549999907613
57	57	1	0.4118449999950826
57	60	1	0.6677300001028925
57	65	1	0.9117999998852612
57	68	2	0.21431499999016523
57	72	2	0.7837849999777973
57	76	2	0.24239000002853572
57	80	2	0.7587449999991804
57	82	1	0.4223849999252707
57	85	1	0.7345300000160933
57	86	1	0.5720000001601875
57	90	2	0.4461299998220056
57	93	2	0.5496000000275671
57	98	1	0.5674550000112504
57	101	2	0.26429500011727214
57	104	1	0.6776250000111759
57	109	1	0.6941200001165271
57	112	1	0.3998699998483062
57	115	1	0.705504999961704
57	118	1	0.29761500004678965
57	120	1	0.597404999891296
58	2	1	1.2014750000089407
58	4	1	1.3277750000124795
58	8	1	1.2964999999967404
58	9	2	1.1965400000335649
58	13	1	1.2792849999968894
58	16	1	1.2430399999720976
58	19	1	1.301340000005439
58	22	1	1.2044299999834038
58	25	2	1.1306399999884889
58	26	2	1.4820049999980256
58	27	1	1.2667600000277162
58	32	2	1.1640949999564327
58	40	1	0.9196150000207126
58	44	1	1.3273599999956789
58	46	1	1.1420950000174344
58	48	2	1.206174999999348
58	51	2	1.2185150000150315
58	53	1	1.1701049999683164
58	54	1	1.4470849999925122
58	56	1	1.042970000009518
58	57	1	1.4027549999882467
58	60	1	1.2511649999651129
58	65	2	1.2235399999772198
58	68	1	1.2387699999962931
58	72	1	1.2094900000374764
58	76	2	1.1447750000515953
58	80	1	1.4383599999709986
58	82	2	1.3021400000434369
58	85	2	1.1438850000267848
58	86	1	1.472269999969285
58	90	1	1.0054349999991246
58	93	1	0.8022900000214577
58	98	1	0.4875750000355765
58	101	1	0.6259549999958836
58	104	1	1.2150600000168197
58	109	1	1.1607499999809079
58	112	1	1.36597000004258
58	115	2	1.2390299999970011
58	118	2	1.3704199999920093
58	120	1	1.317174999974668
